"STUDYID","USUBJID","EVID","NFRLT","AFRLT","APRLT","NPRLT","DOSEA","DOSEP","PARAMCD","ALLOQ","CMT","BLQFL","BLQFN","AMT","DV","AVAL","DVL","MDV","AVALU","UDTC","II","SS","ASEQ","PARAM","PARAMN","PROJID","PROJIDN","STUDYIDN","SITEID","SITEIDN","USUBJIDN","SUBJID","SUBJIDN","AGE","SEX","SEXN","COHORT","COHORTC","ROUTE","ROUTEN","RACE","RACEN","ETHNIC","ETHNICN","FORM","FORMN","COUNTRY","COUNTRYN","COUNTRYL","HTBL","WTBL","ALTBL","ASTBL","TBILBL","CREATBL","BMIBL","BSABL","CRCLBL","EGFRBL","RECSEQ"
"CDISCPILOT01","01-710-1002",0,0,-0.5,-0.5,0,54,54,"XAN",0.01,2,"Y",1,NA,0,0,NA,0,"ug/ml","2014-01-13T23:30:00",0,0,1,"Pharmacokinetic concentration of Xanomeline",1,"XANOMELINE",1,1,"710",710,1002,"1002",1002,88,"M",1,1,"Xanomeline Low Dose","TRANSDERMAL",3,"WHITE",5,"NOT HISPANIC OR LATINO",2,"PATCH",3,"USA",235,"United States of America",165.1,70.31,14,20,11.97,123.76,25.7942527719375,2.75166666666667,36.3366806722689,48.3565089209216,1
"CDISCPILOT01","01-710-1002",1,0,0,0,0,54,54,"DOSE",NA,1,"N",0,54,NA,NA,NA,1,NA,"2014-01-14T00:00:00",1,1,2,"Xanomeline Patch Dose",2,"XANOMELINE",1,1,"710",710,1002,"1002",1002,88,"M",1,1,"Xanomeline Low Dose","TRANSDERMAL",3,"WHITE",5,"NOT HISPANIC OR LATINO",2,"PATCH",3,"USA",235,"United States of America",165.1,70.31,14,20,11.97,123.76,25.7942527719375,2.75166666666667,36.3366806722689,48.3565089209216,2
"CDISCPILOT01","01-710-1002",0,0.08,0.0833333333333333,0.0833333333333333,0.08,54,54,"XAN",0.01,2,"N",0,NA,0.105496883528441,0.105496883528441,-2.2490738665171,0,"ug/ml","2014-01-14T00:05:00",0,0,3,"Pharmacokinetic concentration of Xanomeline",1,"XANOMELINE",1,1,"710",710,1002,"1002",1002,88,"M",1,1,"Xanomeline Low Dose","TRANSDERMAL",3,"WHITE",5,"NOT HISPANIC OR LATINO",2,"PATCH",3,"USA",235,"United States of America",165.1,70.31,14,20,11.97,123.76,25.7942527719375,2.75166666666667,36.3366806722689,48.3565089209216,3
"CDISCPILOT01","01-710-1002",0,0.5,0.5,0.5,0.5,54,54,"XAN",0.01,2,"N",0,NA,0.570037010595307,0.570037010595307,-0.562053989392498,0,"ug/ml","2014-01-14T00:30:00",0,0,4,"Pharmacokinetic concentration of Xanomeline",1,"XANOMELINE",1,1,"710",710,1002,"1002",1002,88,"M",1,1,"Xanomeline Low Dose","TRANSDERMAL",3,"WHITE",5,"NOT HISPANIC OR LATINO",2,"PATCH",3,"USA",235,"United States of America",165.1,70.31,14,20,11.97,123.76,25.7942527719375,2.75166666666667,36.3366806722689,48.3565089209216,4
"CDISCPILOT01","01-710-1002",0,1,1,1,1,54,54,"XAN",0.01,2,"N",0,NA,0.968127680410523,0.968127680410523,-0.0323912991532245,0,"ug/ml","2014-01-14T01:00:00",0,0,5,"Pharmacokinetic concentration of Xanomeline",1,"XANOMELINE",1,1,"710",710,1002,"1002",1002,88,"M",1,1,"Xanomeline Low Dose","TRANSDERMAL",3,"WHITE",5,"NOT HISPANIC OR LATINO",2,"PATCH",3,"USA",235,"United States of America",165.1,70.31,14,20,11.97,123.76,25.7942527719375,2.75166666666667,36.3366806722689,48.3565089209216,5
"CDISCPILOT01","01-710-1002",0,1.5,1.5,1.5,1.5,54,54,"XAN",0.01,2,"N",0,NA,1.24613801736816,1.24613801736816,0.220049182584162,0,"ug/ml","2014-01-14T01:30:00",0,0,6,"Pharmacokinetic concentration of Xanomeline",1,"XANOMELINE",1,1,"710",710,1002,"1002",1002,88,"M",1,1,"Xanomeline Low Dose","TRANSDERMAL",3,"WHITE",5,"NOT HISPANIC OR LATINO",2,"PATCH",3,"USA",235,"United States of America",165.1,70.31,14,20,11.97,123.76,25.7942527719375,2.75166666666667,36.3366806722689,48.3565089209216,6
"CDISCPILOT01","01-710-1002",0,2,2,2,2,54,54,"XAN",0.01,2,"N",0,NA,1.44028913246759,1.44028913246759,0.364843879868835,0,"ug/ml","2014-01-14T02:00:00",0,0,7,"Pharmacokinetic concentration of Xanomeline",1,"XANOMELINE",1,1,"710",710,1002,"1002",1002,88,"M",1,1,"Xanomeline Low Dose","TRANSDERMAL",3,"WHITE",5,"NOT HISPANIC OR LATINO",2,"PATCH",3,"USA",235,"United States of America",165.1,70.31,14,20,11.97,123.76,25.7942527719375,2.75166666666667,36.3366806722689,48.3565089209216,7
"CDISCPILOT01","01-710-1002",0,4,4,4,4,54,54,"XAN",0.01,2,"N",0,NA,1.78287186119746,1.78287186119746,0.578225469331235,0,"ug/ml","2014-01-14T04:00:00",0,0,8,"Pharmacokinetic concentration of Xanomeline",1,"XANOMELINE",1,1,"710",710,1002,"1002",1002,88,"M",1,1,"Xanomeline Low Dose","TRANSDERMAL",3,"WHITE",5,"NOT HISPANIC OR LATINO",2,"PATCH",3,"USA",235,"United States of America",165.1,70.31,14,20,11.97,123.76,25.7942527719375,2.75166666666667,36.3366806722689,48.3565089209216,8
"CDISCPILOT01","01-710-1002",0,6,6,6,6,54,54,"XAN",0.01,2,"N",0,NA,1.86435753194117,1.86435753194117,0.622916506851724,0,"ug/ml","2014-01-14T06:00:00",0,0,9,"Pharmacokinetic concentration of Xanomeline",1,"XANOMELINE",1,1,"710",710,1002,"1002",1002,88,"M",1,1,"Xanomeline Low Dose","TRANSDERMAL",3,"WHITE",5,"NOT HISPANIC OR LATINO",2,"PATCH",3,"USA",235,"United States of America",165.1,70.31,14,20,11.97,123.76,25.7942527719375,2.75166666666667,36.3366806722689,48.3565089209216,9
"CDISCPILOT01","01-710-1002",0,3,6,6,3,54,54,"XAN",0.01,3,"N",0,NA,25.7735062269015,25.7735062269015,3.24934707388419,0,"ug/ml","2014-01-14T06:00:00",0,0,10,"Pharmacokinetic concentration of Xanomeline",1,"XANOMELINE",1,1,"710",710,1002,"1002",1002,88,"M",1,1,"Xanomeline Low Dose","TRANSDERMAL",3,"WHITE",5,"NOT HISPANIC OR LATINO",2,"PATCH",3,"USA",235,"United States of America",165.1,70.31,14,20,11.97,123.76,25.7942527719375,2.75166666666667,36.3366806722689,48.3565089209216,10
"CDISCPILOT01","01-710-1002",0,8,8,8,8,54,54,"XAN",0.01,2,"N",0,NA,1.88373946214288,1.88373946214288,0.633258876858186,0,"ug/ml","2014-01-14T08:00:00",0,0,11,"Pharmacokinetic concentration of Xanomeline",1,"XANOMELINE",1,1,"710",710,1002,"1002",1002,88,"M",1,1,"Xanomeline Low Dose","TRANSDERMAL",3,"WHITE",5,"NOT HISPANIC OR LATINO",2,"PATCH",3,"USA",235,"United States of America",165.1,70.31,14,20,11.97,123.76,25.7942527719375,2.75166666666667,36.3366806722689,48.3565089209216,11
"CDISCPILOT01","01-710-1002",0,12,12,12,12,54,54,"XAN",0.01,2,"N",0,NA,0.542982129835085,0.542982129835085,-0.610678869654051,0,"ug/ml","2014-01-14T12:00:00",0,0,12,"Pharmacokinetic concentration of Xanomeline",1,"XANOMELINE",1,1,"710",710,1002,"1002",1002,88,"M",1,1,"Xanomeline Low Dose","TRANSDERMAL",3,"WHITE",5,"NOT HISPANIC OR LATINO",2,"PATCH",3,"USA",235,"United States of America",165.1,70.31,14,20,11.97,123.76,25.7942527719375,2.75166666666667,36.3366806722689,48.3565089209216,12
"CDISCPILOT01","01-710-1002",0,9,12,12,9,54,54,"XAN",0.01,3,"N",0,NA,21.465248267165,21.465248267165,3.06643526774823,0,"ug/ml","2014-01-14T12:00:00",0,0,13,"Pharmacokinetic concentration of Xanomeline",1,"XANOMELINE",1,1,"710",710,1002,"1002",1002,88,"M",1,1,"Xanomeline Low Dose","TRANSDERMAL",3,"WHITE",5,"NOT HISPANIC OR LATINO",2,"PATCH",3,"USA",235,"United States of America",165.1,70.31,14,20,11.97,123.76,25.7942527719375,2.75166666666667,36.3366806722689,48.3565089209216,13
"CDISCPILOT01","01-710-1002",0,16,16,16,16,54,54,"XAN",0.01,2,"N",0,NA,0.156011963811475,0.156011963811475,-1.85782258357401,0,"ug/ml","2014-01-14T16:00:00",0,0,14,"Pharmacokinetic concentration of Xanomeline",1,"XANOMELINE",1,1,"710",710,1002,"1002",1002,88,"M",1,1,"Xanomeline Low Dose","TRANSDERMAL",3,"WHITE",5,"NOT HISPANIC OR LATINO",2,"PATCH",3,"USA",235,"United States of America",165.1,70.31,14,20,11.97,123.76,25.7942527719375,2.75166666666667,36.3366806722689,48.3565089209216,14
"CDISCPILOT01","01-710-1002",0,24,24,24,24,54,54,"XAN",0.01,2,"N",0,NA,0.0128796077699412,0.0128796077699412,-4.35211001141394,0,"ug/ml","2014-01-15T00:00:00",0,0,15,"Pharmacokinetic concentration of Xanomeline",1,"XANOMELINE",1,1,"710",710,1002,"1002",1002,88,"M",1,1,"Xanomeline Low Dose","TRANSDERMAL",3,"WHITE",5,"NOT HISPANIC OR LATINO",2,"PATCH",3,"USA",235,"United States of America",165.1,70.31,14,20,11.97,123.76,25.7942527719375,2.75166666666667,36.3366806722689,48.3565089209216,15
"CDISCPILOT01","01-710-1002",0,18,24,24,18,54,54,"XAN",0.01,3,"N",0,NA,12.848732347692,12.848732347692,2.55324515648994,0,"ug/ml","2014-01-15T00:00:00",0,0,16,"Pharmacokinetic concentration of Xanomeline",1,"XANOMELINE",1,1,"710",710,1002,"1002",1002,88,"M",1,1,"Xanomeline Low Dose","TRANSDERMAL",3,"WHITE",5,"NOT HISPANIC OR LATINO",2,"PATCH",3,"USA",235,"United States of America",165.1,70.31,14,20,11.97,123.76,25.7942527719375,2.75166666666667,36.3366806722689,48.3565089209216,16
"CDISCPILOT01","01-710-1002",1,24,24,0,0,54,54,"DOSE",NA,1,"N",0,54,NA,NA,NA,1,NA,"2014-01-15T00:00:00",1,1,17,"Xanomeline Patch Dose",2,"XANOMELINE",1,1,"710",710,1002,"1002",1002,88,"M",1,1,"Xanomeline Low Dose","TRANSDERMAL",3,"WHITE",5,"NOT HISPANIC OR LATINO",2,"PATCH",3,"USA",235,"United States of America",165.1,70.31,14,20,11.97,123.76,25.7942527719375,2.75166666666667,36.3366806722689,48.3565089209216,17
"CDISCPILOT01","01-710-1002",0,36,36,12,12,54,54,"XAN",0.01,2,"Y",1,NA,NA,NA,NA,1,"ug/ml","2014-01-15T12:00:00",0,0,18,"Pharmacokinetic concentration of Xanomeline",1,"XANOMELINE",1,1,"710",710,1002,"1002",1002,88,"M",1,1,"Xanomeline Low Dose","TRANSDERMAL",3,"WHITE",5,"NOT HISPANIC OR LATINO",2,"PATCH",3,"USA",235,"United States of America",165.1,70.31,14,20,11.97,123.76,25.7942527719375,2.75166666666667,36.3366806722689,48.3565089209216,18
"CDISCPILOT01","01-710-1002",0,48,48,24,24,54,54,"XAN",0.01,2,"Y",1,NA,NA,NA,NA,1,"ug/ml","2014-01-16T00:00:00",0,0,19,"Pharmacokinetic concentration of Xanomeline",1,"XANOMELINE",1,1,"710",710,1002,"1002",1002,88,"M",1,1,"Xanomeline Low Dose","TRANSDERMAL",3,"WHITE",5,"NOT HISPANIC OR LATINO",2,"PATCH",3,"USA",235,"United States of America",165.1,70.31,14,20,11.97,123.76,25.7942527719375,2.75166666666667,36.3366806722689,48.3565089209216,19
"CDISCPILOT01","01-710-1002",0,37,48,24,13,54,54,"XAN",0.01,3,"Y",1,NA,NA,NA,NA,1,"ug/ml","2014-01-16T00:00:00",0,0,20,"Pharmacokinetic concentration of Xanomeline",1,"XANOMELINE",1,1,"710",710,1002,"1002",1002,88,"M",1,1,"Xanomeline Low Dose","TRANSDERMAL",3,"WHITE",5,"NOT HISPANIC OR LATINO",2,"PATCH",3,"USA",235,"United States of America",165.1,70.31,14,20,11.97,123.76,25.7942527719375,2.75166666666667,36.3366806722689,48.3565089209216,20
"CDISCPILOT01","01-710-1002",1,48,48,0,0,54,54,"DOSE",NA,1,"N",0,54,NA,NA,NA,1,NA,"2014-01-16T00:00:00",1,1,21,"Xanomeline Patch Dose",2,"XANOMELINE",1,1,"710",710,1002,"1002",1002,88,"M",1,1,"Xanomeline Low Dose","TRANSDERMAL",3,"WHITE",5,"NOT HISPANIC OR LATINO",2,"PATCH",3,"USA",235,"United States of America",165.1,70.31,14,20,11.97,123.76,25.7942527719375,2.75166666666667,36.3366806722689,48.3565089209216,21
"CDISCPILOT01","01-717-1004",0,0,-0.5,-0.5,0,54,54,"XAN",0.01,2,"Y",1,NA,0,0,NA,0,"ug/ml","2014-01-13T23:30:00",0,0,1,"Pharmacokinetic concentration of Xanomeline",1,"XANOMELINE",1,1,"717",717,1004,"1004",1004,80,"F",2,1,"Xanomeline Low Dose","TRANSDERMAL",3,"WHITE",5,"NOT HISPANIC OR LATINO",2,"PATCH",3,"USA",235,"United States of America",135.89,55.79,24,24,6.84,88.4,30.2121313474874,2.26483333333333,39.3811764705882,56.9670581246401,22
"CDISCPILOT01","01-717-1004",1,0,0,0,0,54,54,"DOSE",NA,1,"N",0,54,NA,NA,NA,1,NA,"2014-01-14T00:00:00",1,1,2,"Xanomeline Patch Dose",2,"XANOMELINE",1,1,"717",717,1004,"1004",1004,80,"F",2,1,"Xanomeline Low Dose","TRANSDERMAL",3,"WHITE",5,"NOT HISPANIC OR LATINO",2,"PATCH",3,"USA",235,"United States of America",135.89,55.79,24,24,6.84,88.4,30.2121313474874,2.26483333333333,39.3811764705882,56.9670581246401,23
"CDISCPILOT01","01-717-1004",0,0.08,0.0833333333333333,0.0833333333333333,0.08,54,54,"XAN",0.01,2,"N",0,NA,0.109027691140278,0.109027691140278,-2.21615338185899,0,"ug/ml","2014-01-14T00:05:00",0,0,3,"Pharmacokinetic concentration of Xanomeline",1,"XANOMELINE",1,1,"717",717,1004,"1004",1004,80,"F",2,1,"Xanomeline Low Dose","TRANSDERMAL",3,"WHITE",5,"NOT HISPANIC OR LATINO",2,"PATCH",3,"USA",235,"United States of America",135.89,55.79,24,24,6.84,88.4,30.2121313474874,2.26483333333333,39.3811764705882,56.9670581246401,24
"CDISCPILOT01","01-717-1004",0,0.5,0.5,0.5,0.5,54,54,"XAN",0.01,2,"N",0,NA,0.58767243870709,0.58767243870709,-0.531585563337328,0,"ug/ml","2014-01-14T00:30:00",0,0,4,"Pharmacokinetic concentration of Xanomeline",1,"XANOMELINE",1,1,"717",717,1004,"1004",1004,80,"F",2,1,"Xanomeline Low Dose","TRANSDERMAL",3,"WHITE",5,"NOT HISPANIC OR LATINO",2,"PATCH",3,"USA",235,"United States of America",135.89,55.79,24,24,6.84,88.4,30.2121313474874,2.26483333333333,39.3811764705882,56.9670581246401,25
"CDISCPILOT01","01-717-1004",0,1,1,1,1,54,54,"XAN",0.01,2,"N",0,NA,0.995511029300391,0.995511029300391,-0.00449907638266342,0,"ug/ml","2014-01-14T01:00:00",0,0,5,"Pharmacokinetic concentration of Xanomeline",1,"XANOMELINE",1,1,"717",717,1004,"1004",1004,80,"F",2,1,"Xanomeline Low Dose","TRANSDERMAL",3,"WHITE",5,"NOT HISPANIC OR LATINO",2,"PATCH",3,"USA",235,"United States of America",135.89,55.79,24,24,6.84,88.4,30.2121313474874,2.26483333333333,39.3811764705882,56.9670581246401,26
"CDISCPILOT01","01-717-1004",0,1.5,1.5,1.5,1.5,54,54,"XAN",0.01,2,"N",0,NA,1.27854679041771,1.27854679041771,0.245724112981419,0,"ug/ml","2014-01-14T01:30:00",0,0,6,"Pharmacokinetic concentration of Xanomeline",1,"XANOMELINE",1,1,"717",717,1004,"1004",1004,80,"F",2,1,"Xanomeline Low Dose","TRANSDERMAL",3,"WHITE",5,"NOT HISPANIC OR LATINO",2,"PATCH",3,"USA",235,"United States of America",135.89,55.79,24,24,6.84,88.4,30.2121313474874,2.26483333333333,39.3811764705882,56.9670581246401,27
"CDISCPILOT01","01-717-1004",0,2,2,2,2,54,54,"XAN",0.01,2,"N",0,NA,1.47497067947323,1.47497067947323,0.388638111270973,0,"ug/ml","2014-01-14T02:00:00",0,0,7,"Pharmacokinetic concentration of Xanomeline",1,"XANOMELINE",1,1,"717",717,1004,"1004",1004,80,"F",2,1,"Xanomeline Low Dose","TRANSDERMAL",3,"WHITE",5,"NOT HISPANIC OR LATINO",2,"PATCH",3,"USA",235,"United States of America",135.89,55.79,24,24,6.84,88.4,30.2121313474874,2.26483333333333,39.3811764705882,56.9670581246401,28
"CDISCPILOT01","01-717-1004",0,4,4,4,4,54,54,"XAN",0.01,2,"N",0,NA,1.81710399309774,1.81710399309774,0.597244021181738,0,"ug/ml","2014-01-14T04:00:00",0,0,8,"Pharmacokinetic concentration of Xanomeline",1,"XANOMELINE",1,1,"717",717,1004,"1004",1004,80,"F",2,1,"Xanomeline Low Dose","TRANSDERMAL",3,"WHITE",5,"NOT HISPANIC OR LATINO",2,"PATCH",3,"USA",235,"United States of America",135.89,55.79,24,24,6.84,88.4,30.2121313474874,2.26483333333333,39.3811764705882,56.9670581246401,29
"CDISCPILOT01","01-717-1004",0,6,6,6,6,54,54,"XAN",0.01,2,"N",0,NA,1.89646503119885,1.89646503119885,0.639991643378801,0,"ug/ml","2014-01-14T06:00:00",0,0,9,"Pharmacokinetic concentration of Xanomeline",1,"XANOMELINE",1,1,"717",717,1004,"1004",1004,80,"F",2,1,"Xanomeline Low Dose","TRANSDERMAL",3,"WHITE",5,"NOT HISPANIC OR LATINO",2,"PATCH",3,"USA",235,"United States of America",135.89,55.79,24,24,6.84,88.4,30.2121313474874,2.26483333333333,39.3811764705882,56.9670581246401,30
"CDISCPILOT01","01-717-1004",0,3,6,6,3,54,54,"XAN",0.01,3,"N",0,NA,25.1813057252742,25.1813057252742,3.22610188292203,0,"ug/ml","2014-01-14T06:00:00",0,0,10,"Pharmacokinetic concentration of Xanomeline",1,"XANOMELINE",1,1,"717",717,1004,"1004",1004,80,"F",2,1,"Xanomeline Low Dose","TRANSDERMAL",3,"WHITE",5,"NOT HISPANIC OR LATINO",2,"PATCH",3,"USA",235,"United States of America",135.89,55.79,24,24,6.84,88.4,30.2121313474874,2.26483333333333,39.3811764705882,56.9670581246401,31
"CDISCPILOT01","01-717-1004",0,8,8,8,8,54,54,"XAN",0.01,2,"N",0,NA,1.9148735699692,1.9148735699692,0.649651599549322,0,"ug/ml","2014-01-14T08:00:00",0,0,11,"Pharmacokinetic concentration of Xanomeline",1,"XANOMELINE",1,1,"717",717,1004,"1004",1004,80,"F",2,1,"Xanomeline Low Dose","TRANSDERMAL",3,"WHITE",5,"NOT HISPANIC OR LATINO",2,"PATCH",3,"USA",235,"United States of America",135.89,55.79,24,24,6.84,88.4,30.2121313474874,2.26483333333333,39.3811764705882,56.9670581246401,32
"CDISCPILOT01","01-717-1004",0,12,12,12,12,54,54,"XAN",0.01,2,"N",0,NA,0.53988636355941,0.53988636355941,-0.616396599421913,0,"ug/ml","2014-01-14T12:00:00",0,0,12,"Pharmacokinetic concentration of Xanomeline",1,"XANOMELINE",1,1,"717",717,1004,"1004",1004,80,"F",2,1,"Xanomeline Low Dose","TRANSDERMAL",3,"WHITE",5,"NOT HISPANIC OR LATINO",2,"PATCH",3,"USA",235,"United States of America",135.89,55.79,24,24,6.84,88.4,30.2121313474874,2.26483333333333,39.3811764705882,56.9670581246401,33
"CDISCPILOT01","01-717-1004",0,9,12,12,9,54,54,"XAN",0.01,3,"N",0,NA,20.7977269555978,20.7977269555978,3.0348436997548,0,"ug/ml","2014-01-14T12:00:00",0,0,13,"Pharmacokinetic concentration of Xanomeline",1,"XANOMELINE",1,1,"717",717,1004,"1004",1004,80,"F",2,1,"Xanomeline Low Dose","TRANSDERMAL",3,"WHITE",5,"NOT HISPANIC OR LATINO",2,"PATCH",3,"USA",235,"United States of America",135.89,55.79,24,24,6.84,88.4,30.2121313474874,2.26483333333333,39.3811764705882,56.9670581246401,34
"CDISCPILOT01","01-717-1004",0,16,16,16,16,54,54,"XAN",0.01,2,"N",0,NA,0.151776840341045,0.151776840341045,-1.88534399258341,0,"ug/ml","2014-01-14T16:00:00",0,0,14,"Pharmacokinetic concentration of Xanomeline",1,"XANOMELINE",1,1,"717",717,1004,"1004",1004,80,"F",2,1,"Xanomeline Low Dose","TRANSDERMAL",3,"WHITE",5,"NOT HISPANIC OR LATINO",2,"PATCH",3,"USA",235,"United States of America",135.89,55.79,24,24,6.84,88.4,30.2121313474874,2.26483333333333,39.3811764705882,56.9670581246401,35
"CDISCPILOT01","01-717-1004",0,24,24,24,24,54,54,"XAN",0.01,2,"N",0,NA,0.0119953191166349,0.0119953191166349,-4.4232387789064,0,"ug/ml","2014-01-15T00:00:00",0,0,15,"Pharmacokinetic concentration of Xanomeline",1,"XANOMELINE",1,1,"717",717,1004,"1004",1004,80,"F",2,1,"Xanomeline Low Dose","TRANSDERMAL",3,"WHITE",5,"NOT HISPANIC OR LATINO",2,"PATCH",3,"USA",235,"United States of America",135.89,55.79,24,24,6.84,88.4,30.2121313474874,2.26483333333333,39.3811764705882,56.9670581246401,36
"CDISCPILOT01","01-717-1004",0,18,24,24,18,54,54,"XAN",0.01,3,"N",0,NA,12.030569416245,12.030569416245,2.48745086188762,0,"ug/ml","2014-01-15T00:00:00",0,0,16,"Pharmacokinetic concentration of Xanomeline",1,"XANOMELINE",1,1,"717",717,1004,"1004",1004,80,"F",2,1,"Xanomeline Low Dose","TRANSDERMAL",3,"WHITE",5,"NOT HISPANIC OR LATINO",2,"PATCH",3,"USA",235,"United States of America",135.89,55.79,24,24,6.84,88.4,30.2121313474874,2.26483333333333,39.3811764705882,56.9670581246401,37
"CDISCPILOT01","01-717-1004",1,24,24,0,0,54,54,"DOSE",NA,1,"N",0,54,NA,NA,NA,1,NA,"2014-01-15T00:00:00",1,1,17,"Xanomeline Patch Dose",2,"XANOMELINE",1,1,"717",717,1004,"1004",1004,80,"F",2,1,"Xanomeline Low Dose","TRANSDERMAL",3,"WHITE",5,"NOT HISPANIC OR LATINO",2,"PATCH",3,"USA",235,"United States of America",135.89,55.79,24,24,6.84,88.4,30.2121313474874,2.26483333333333,39.3811764705882,56.9670581246401,38
"CDISCPILOT01","01-717-1004",0,36,36,12,12,54,54,"XAN",0.01,2,"Y",1,NA,NA,NA,NA,1,"ug/ml","2014-01-15T12:00:00",0,0,18,"Pharmacokinetic concentration of Xanomeline",1,"XANOMELINE",1,1,"717",717,1004,"1004",1004,80,"F",2,1,"Xanomeline Low Dose","TRANSDERMAL",3,"WHITE",5,"NOT HISPANIC OR LATINO",2,"PATCH",3,"USA",235,"United States of America",135.89,55.79,24,24,6.84,88.4,30.2121313474874,2.26483333333333,39.3811764705882,56.9670581246401,39
"CDISCPILOT01","01-717-1004",0,48,48,24,24,54,54,"XAN",0.01,2,"Y",1,NA,NA,NA,NA,1,"ug/ml","2014-01-16T00:00:00",0,0,19,"Pharmacokinetic concentration of Xanomeline",1,"XANOMELINE",1,1,"717",717,1004,"1004",1004,80,"F",2,1,"Xanomeline Low Dose","TRANSDERMAL",3,"WHITE",5,"NOT HISPANIC OR LATINO",2,"PATCH",3,"USA",235,"United States of America",135.89,55.79,24,24,6.84,88.4,30.2121313474874,2.26483333333333,39.3811764705882,56.9670581246401,40
"CDISCPILOT01","01-717-1004",0,37,48,24,13,54,54,"XAN",0.01,3,"Y",1,NA,NA,NA,NA,1,"ug/ml","2014-01-16T00:00:00",0,0,20,"Pharmacokinetic concentration of Xanomeline",1,"XANOMELINE",1,1,"717",717,1004,"1004",1004,80,"F",2,1,"Xanomeline Low Dose","TRANSDERMAL",3,"WHITE",5,"NOT HISPANIC OR LATINO",2,"PATCH",3,"USA",235,"United States of America",135.89,55.79,24,24,6.84,88.4,30.2121313474874,2.26483333333333,39.3811764705882,56.9670581246401,41
"CDISCPILOT01","01-717-1004",1,48,48,0,0,54,54,"DOSE",NA,1,"N",0,54,NA,NA,NA,1,NA,"2014-01-16T00:00:00",1,1,21,"Xanomeline Patch Dose",2,"XANOMELINE",1,1,"717",717,1004,"1004",1004,80,"F",2,1,"Xanomeline Low Dose","TRANSDERMAL",3,"WHITE",5,"NOT HISPANIC OR LATINO",2,"PATCH",3,"USA",235,"United States of America",135.89,55.79,24,24,6.84,88.4,30.2121313474874,2.26483333333333,39.3811764705882,56.9670581246401,42
"CDISCPILOT01","01-710-1006",0,0,-0.5,-0.5,0,54,81,"XAN",0.01,2,"Y",1,NA,0,0,NA,0,"ug/ml","2013-02-09T23:30:00",0,0,1,"Pharmacokinetic concentration of Xanomeline",1,"XANOMELINE",1,1,"710",710,1006,"1006",1006,77,"M",1,2,"Xanomeline High Dose","TRANSDERMAL",3,"WHITE",5,"NOT HISPANIC OR LATINO",2,"PATCH",3,"USA",235,"United States of America",170.18,72.58,14,28,8.55,141.44,25.0610882152929,2.83633333333333,39.7640285633484,44.1139236016938,43
"CDISCPILOT01","01-710-1006",1,0,0,0,0,54,81,"DOSE",NA,1,"N",0,54,NA,NA,NA,1,NA,"2013-02-10T00:00:00",1,1,2,"Xanomeline Patch Dose",2,"XANOMELINE",1,1,"710",710,1006,"1006",1006,77,"M",1,2,"Xanomeline High Dose","TRANSDERMAL",3,"WHITE",5,"NOT HISPANIC OR LATINO",2,"PATCH",3,"USA",235,"United States of America",170.18,72.58,14,28,8.55,141.44,25.0610882152929,2.83633333333333,39.7640285633484,44.1139236016938,44
"CDISCPILOT01","01-710-1006",0,0.08,0.0833333333333333,0.0833333333333333,0.08,54,81,"XAN",0.01,2,"N",0,NA,0.107443573930322,0.107443573930322,-2.23078946289075,0,"ug/ml","2013-02-10T00:05:00",0,0,3,"Pharmacokinetic concentration of Xanomeline",1,"XANOMELINE",1,1,"710",710,1006,"1006",1006,77,"M",1,2,"Xanomeline High Dose","TRANSDERMAL",3,"WHITE",5,"NOT HISPANIC OR LATINO",2,"PATCH",3,"USA",235,"United States of America",170.18,72.58,14,28,8.55,141.44,25.0610882152929,2.83633333333333,39.7640285633484,44.1139236016938,45
"CDISCPILOT01","01-710-1006",0,0.5,0.5,0.5,0.5,54,81,"XAN",0.01,2,"N",0,NA,0.580637249570505,0.580637249570505,-0.543629072421499,0,"ug/ml","2013-02-10T00:30:00",0,0,4,"Pharmacokinetic concentration of Xanomeline",1,"XANOMELINE",1,1,"710",710,1006,"1006",1006,77,"M",1,2,"Xanomeline High Dose","TRANSDERMAL",3,"WHITE",5,"NOT HISPANIC OR LATINO",2,"PATCH",3,"USA",235,"United States of America",170.18,72.58,14,28,8.55,141.44,25.0610882152929,2.83633333333333,39.7640285633484,44.1139236016938,46
"CDISCPILOT01","01-710-1006",0,1,1,1,1,54,81,"XAN",0.01,2,"N",0,NA,0.986276470896335,0.986276470896335,-0.0138185672366512,0,"ug/ml","2013-02-10T01:00:00",0,0,5,"Pharmacokinetic concentration of Xanomeline",1,"XANOMELINE",1,1,"710",710,1006,"1006",1006,77,"M",1,2,"Xanomeline High Dose","TRANSDERMAL",3,"WHITE",5,"NOT HISPANIC OR LATINO",2,"PATCH",3,"USA",235,"United States of America",170.18,72.58,14,28,8.55,141.44,25.0610882152929,2.83633333333333,39.7640285633484,44.1139236016938,47
"CDISCPILOT01","01-710-1006",0,1.5,1.5,1.5,1.5,54,81,"XAN",0.01,2,"N",0,NA,1.26966024966619,1.26966024966619,0.238749344732775,0,"ug/ml","2013-02-10T01:30:00",0,0,6,"Pharmacokinetic concentration of Xanomeline",1,"XANOMELINE",1,1,"710",710,1006,"1006",1006,77,"M",1,2,"Xanomeline High Dose","TRANSDERMAL",3,"WHITE",5,"NOT HISPANIC OR LATINO",2,"PATCH",3,"USA",235,"United States of America",170.18,72.58,14,28,8.55,141.44,25.0610882152929,2.83633333333333,39.7640285633484,44.1139236016938,48
"CDISCPILOT01","01-710-1006",0,2,2,2,2,54,81,"XAN",0.01,2,"N",0,NA,1.46763510477858,1.46763510477858,0.383652333067494,0,"ug/ml","2013-02-10T02:00:00",0,0,7,"Pharmacokinetic concentration of Xanomeline",1,"XANOMELINE",1,1,"710",710,1006,"1006",1006,77,"M",1,2,"Xanomeline High Dose","TRANSDERMAL",3,"WHITE",5,"NOT HISPANIC OR LATINO",2,"PATCH",3,"USA",235,"United States of America",170.18,72.58,14,28,8.55,141.44,25.0610882152929,2.83633333333333,39.7640285633484,44.1139236016938,49
"CDISCPILOT01","01-710-1006",0,4,4,4,4,54,81,"XAN",0.01,2,"N",0,NA,1.81722452272794,1.81722452272794,0.59731034959961,0,"ug/ml","2013-02-10T04:00:00",0,0,8,"Pharmacokinetic concentration of Xanomeline",1,"XANOMELINE",1,1,"710",710,1006,"1006",1006,77,"M",1,2,"Xanomeline High Dose","TRANSDERMAL",3,"WHITE",5,"NOT HISPANIC OR LATINO",2,"PATCH",3,"USA",235,"United States of America",170.18,72.58,14,28,8.55,141.44,25.0610882152929,2.83633333333333,39.7640285633484,44.1139236016938,50
"CDISCPILOT01","01-710-1006",0,6,6,6,6,54,81,"XAN",0.01,2,"N",0,NA,1.90049642099765,1.90049642099765,0.642115126255521,0,"ug/ml","2013-02-10T06:00:00",0,0,9,"Pharmacokinetic concentration of Xanomeline",1,"XANOMELINE",1,1,"710",710,1006,"1006",1006,77,"M",1,2,"Xanomeline High Dose","TRANSDERMAL",3,"WHITE",5,"NOT HISPANIC OR LATINO",2,"PATCH",3,"USA",235,"United States of America",170.18,72.58,14,28,8.55,141.44,25.0610882152929,2.83633333333333,39.7640285633484,44.1139236016938,51
"CDISCPILOT01","01-710-1006",0,3,6,6,3,54,81,"XAN",0.01,3,"N",0,NA,25.8079662508997,25.8079662508997,3.25068321368282,0,"ug/ml","2013-02-10T06:00:00",0,0,10,"Pharmacokinetic concentration of Xanomeline",1,"XANOMELINE",1,1,"710",710,1006,"1006",1006,77,"M",1,2,"Xanomeline High Dose","TRANSDERMAL",3,"WHITE",5,"NOT HISPANIC OR LATINO",2,"PATCH",3,"USA",235,"United States of America",170.18,72.58,14,28,8.55,141.44,25.0610882152929,2.83633333333333,39.7640285633484,44.1139236016938,52
"CDISCPILOT01","01-710-1006",0,8,8,8,8,54,81,"XAN",0.01,2,"N",0,NA,1.92033171544711,1.92033171544711,0.652497939578973,0,"ug/ml","2013-02-10T08:00:00",0,0,11,"Pharmacokinetic concentration of Xanomeline",1,"XANOMELINE",1,1,"710",710,1006,"1006",1006,77,"M",1,2,"Xanomeline High Dose","TRANSDERMAL",3,"WHITE",5,"NOT HISPANIC OR LATINO",2,"PATCH",3,"USA",235,"United States of America",170.18,72.58,14,28,8.55,141.44,25.0610882152929,2.83633333333333,39.7640285633484,44.1139236016938,53
"CDISCPILOT01","01-710-1006",0,12,12,12,12,54,81,"XAN",0.01,2,"N",0,NA,0.554231561405944,0.554231561405944,-0.590172698687371,0,"ug/ml","2013-02-10T12:00:00",0,0,12,"Pharmacokinetic concentration of Xanomeline",1,"XANOMELINE",1,1,"710",710,1006,"1006",1006,77,"M",1,2,"Xanomeline High Dose","TRANSDERMAL",3,"WHITE",5,"NOT HISPANIC OR LATINO",2,"PATCH",3,"USA",235,"United States of America",170.18,72.58,14,28,8.55,141.44,25.0610882152929,2.83633333333333,39.7640285633484,44.1139236016938,54
"CDISCPILOT01","01-710-1006",0,9,12,12,9,54,81,"XAN",0.01,3,"N",0,NA,21.5040215376499,21.5040215376499,3.06823996590506,0,"ug/ml","2013-02-10T12:00:00",0,0,13,"Pharmacokinetic concentration of Xanomeline",1,"XANOMELINE",1,1,"710",710,1006,"1006",1006,77,"M",1,2,"Xanomeline High Dose","TRANSDERMAL",3,"WHITE",5,"NOT HISPANIC OR LATINO",2,"PATCH",3,"USA",235,"United States of America",170.18,72.58,14,28,8.55,141.44,25.0610882152929,2.83633333333333,39.7640285633484,44.1139236016938,55
"CDISCPILOT01","01-710-1006",0,16,16,16,16,54,81,"XAN",0.01,2,"N",0,NA,0.159443153475439,0.159443153475439,-1.83606782482713,0,"ug/ml","2013-02-10T16:00:00",0,0,14,"Pharmacokinetic concentration of Xanomeline",1,"XANOMELINE",1,1,"710",710,1006,"1006",1006,77,"M",1,2,"Xanomeline High Dose","TRANSDERMAL",3,"WHITE",5,"NOT HISPANIC OR LATINO",2,"PATCH",3,"USA",235,"United States of America",170.18,72.58,14,28,8.55,141.44,25.0610882152929,2.83633333333333,39.7640285633484,44.1139236016938,56
"CDISCPILOT01","01-710-1006",0,24,24,24,24,54,81,"XAN",0.01,2,"N",0,NA,0.0131957815883343,0.0131957815883343,-4.32785807710665,0,"ug/ml","2013-02-11T00:00:00",0,0,15,"Pharmacokinetic concentration of Xanomeline",1,"XANOMELINE",1,1,"710",710,1006,"1006",1006,77,"M",1,2,"Xanomeline High Dose","TRANSDERMAL",3,"WHITE",5,"NOT HISPANIC OR LATINO",2,"PATCH",3,"USA",235,"United States of America",170.18,72.58,14,28,8.55,141.44,25.0610882152929,2.83633333333333,39.7640285633484,44.1139236016938,57
"CDISCPILOT01","01-710-1006",0,18,24,24,18,54,81,"XAN",0.01,3,"N",0,NA,12.8961321111503,12.8961321111503,2.55692743006278,0,"ug/ml","2013-02-11T00:00:00",0,0,16,"Pharmacokinetic concentration of Xanomeline",1,"XANOMELINE",1,1,"710",710,1006,"1006",1006,77,"M",1,2,"Xanomeline High Dose","TRANSDERMAL",3,"WHITE",5,"NOT HISPANIC OR LATINO",2,"PATCH",3,"USA",235,"United States of America",170.18,72.58,14,28,8.55,141.44,25.0610882152929,2.83633333333333,39.7640285633484,44.1139236016938,58
"CDISCPILOT01","01-710-1006",1,24,24,0,0,54,81,"DOSE",NA,1,"N",0,54,NA,NA,NA,1,NA,"2013-02-11T00:00:00",1,1,17,"Xanomeline Patch Dose",2,"XANOMELINE",1,1,"710",710,1006,"1006",1006,77,"M",1,2,"Xanomeline High Dose","TRANSDERMAL",3,"WHITE",5,"NOT HISPANIC OR LATINO",2,"PATCH",3,"USA",235,"United States of America",170.18,72.58,14,28,8.55,141.44,25.0610882152929,2.83633333333333,39.7640285633484,44.1139236016938,59
"CDISCPILOT01","01-710-1006",0,36,36,12,12,54,81,"XAN",0.01,2,"Y",1,NA,NA,NA,NA,1,"ug/ml","2013-02-11T12:00:00",0,0,18,"Pharmacokinetic concentration of Xanomeline",1,"XANOMELINE",1,1,"710",710,1006,"1006",1006,77,"M",1,2,"Xanomeline High Dose","TRANSDERMAL",3,"WHITE",5,"NOT HISPANIC OR LATINO",2,"PATCH",3,"USA",235,"United States of America",170.18,72.58,14,28,8.55,141.44,25.0610882152929,2.83633333333333,39.7640285633484,44.1139236016938,60
"CDISCPILOT01","01-710-1006",0,48,48,24,24,54,81,"XAN",0.01,2,"Y",1,NA,NA,NA,NA,1,"ug/ml","2013-02-12T00:00:00",0,0,19,"Pharmacokinetic concentration of Xanomeline",1,"XANOMELINE",1,1,"710",710,1006,"1006",1006,77,"M",1,2,"Xanomeline High Dose","TRANSDERMAL",3,"WHITE",5,"NOT HISPANIC OR LATINO",2,"PATCH",3,"USA",235,"United States of America",170.18,72.58,14,28,8.55,141.44,25.0610882152929,2.83633333333333,39.7640285633484,44.1139236016938,61
"CDISCPILOT01","01-710-1006",0,37,48,24,13,54,81,"XAN",0.01,3,"Y",1,NA,NA,NA,NA,1,"ug/ml","2013-02-12T00:00:00",0,0,20,"Pharmacokinetic concentration of Xanomeline",1,"XANOMELINE",1,1,"710",710,1006,"1006",1006,77,"M",1,2,"Xanomeline High Dose","TRANSDERMAL",3,"WHITE",5,"NOT HISPANIC OR LATINO",2,"PATCH",3,"USA",235,"United States of America",170.18,72.58,14,28,8.55,141.44,25.0610882152929,2.83633333333333,39.7640285633484,44.1139236016938,62
"CDISCPILOT01","01-710-1006",1,48,48,0,0,54,81,"DOSE",NA,1,"N",0,54,NA,NA,NA,1,NA,"2013-02-12T00:00:00",1,1,21,"Xanomeline Patch Dose",2,"XANOMELINE",1,1,"710",710,1006,"1006",1006,77,"M",1,2,"Xanomeline High Dose","TRANSDERMAL",3,"WHITE",5,"NOT HISPANIC OR LATINO",2,"PATCH",3,"USA",235,"United States of America",170.18,72.58,14,28,8.55,141.44,25.0610882152929,2.83633333333333,39.7640285633484,44.1139236016938,63
"CDISCPILOT01","01-709-1007",0,0,-0.5,-0.5,0,54,54,"XAN",0.01,2,"Y",1,NA,0,0,NA,0,"ug/ml","2012-07-30T23:30:00",0,0,1,"Pharmacokinetic concentration of Xanomeline",1,"XANOMELINE",1,1,"709",709,1007,"1007",1007,54,"F",2,1,"Xanomeline Low Dose","TRANSDERMAL",3,"WHITE",5,"NOT HISPANIC OR LATINO",2,"PATCH",3,"USA",235,"United States of America",158.75,59.88,18,20,8.55,106.08,23.760431520863,2.64583333333333,50.4870588235294,53.8062214136656,64
"CDISCPILOT01","01-709-1007",1,0,0,0,0,54,54,"DOSE",NA,1,"N",0,54,NA,NA,NA,1,NA,"2012-07-31T00:00:00",1,1,2,"Xanomeline Patch Dose",2,"XANOMELINE",1,1,"709",709,1007,"1007",1007,54,"F",2,1,"Xanomeline Low Dose","TRANSDERMAL",3,"WHITE",5,"NOT HISPANIC OR LATINO",2,"PATCH",3,"USA",235,"United States of America",158.75,59.88,18,20,8.55,106.08,23.760431520863,2.64583333333333,50.4870588235294,53.8062214136656,65
"CDISCPILOT01","01-709-1007",0,0.08,0.0833333333333333,0.0833333333333333,0.08,54,54,"XAN",0.01,2,"N",0,NA,0.0957768155561386,0.0957768155561386,-2.34573463210275,0,"ug/ml","2012-07-31T00:05:00",0,0,3,"Pharmacokinetic concentration of Xanomeline",1,"XANOMELINE",1,1,"709",709,1007,"1007",1007,54,"F",2,1,"Xanomeline Low Dose","TRANSDERMAL",3,"WHITE",5,"NOT HISPANIC OR LATINO",2,"PATCH",3,"USA",235,"United States of America",158.75,59.88,18,20,8.55,106.08,23.760431520863,2.64583333333333,50.4870588235294,53.8062214136656,66
"CDISCPILOT01","01-709-1007",0,0.5,0.5,0.5,0.5,54,54,"XAN",0.01,2,"N",0,NA,0.51998016077761,0.51998016077761,-0.653964620485233,0,"ug/ml","2012-07-31T00:30:00",0,0,4,"Pharmacokinetic concentration of Xanomeline",1,"XANOMELINE",1,1,"709",709,1007,"1007",1007,54,"F",2,1,"Xanomeline Low Dose","TRANSDERMAL",3,"WHITE",5,"NOT HISPANIC OR LATINO",2,"PATCH",3,"USA",235,"United States of America",158.75,59.88,18,20,8.55,106.08,23.760431520863,2.64583333333333,50.4870588235294,53.8062214136656,67
"CDISCPILOT01","01-709-1007",0,1,1,1,1,54,54,"XAN",0.01,2,"N",0,NA,0.88754707999852,0.88754707999852,-0.119293711153899,0,"ug/ml","2012-07-31T01:00:00",0,0,5,"Pharmacokinetic concentration of Xanomeline",1,"XANOMELINE",1,1,"709",709,1007,"1007",1007,54,"F",2,1,"Xanomeline Low Dose","TRANSDERMAL",3,"WHITE",5,"NOT HISPANIC OR LATINO",2,"PATCH",3,"USA",235,"United States of America",158.75,59.88,18,20,8.55,106.08,23.760431520863,2.64583333333333,50.4870588235294,53.8062214136656,68
"CDISCPILOT01","01-709-1007",0,1.5,1.5,1.5,1.5,54,54,"XAN",0.01,2,"N",0,NA,1.14737514709921,1.14737514709921,0.137476852762106,0,"ug/ml","2012-07-31T01:30:00",0,0,6,"Pharmacokinetic concentration of Xanomeline",1,"XANOMELINE",1,1,"709",709,1007,"1007",1007,54,"F",2,1,"Xanomeline Low Dose","TRANSDERMAL",3,"WHITE",5,"NOT HISPANIC OR LATINO",2,"PATCH",3,"USA",235,"United States of America",158.75,59.88,18,20,8.55,106.08,23.760431520863,2.64583333333333,50.4870588235294,53.8062214136656,69
"CDISCPILOT01","01-709-1007",0,2,2,2,2,54,54,"XAN",0.01,2,"N",0,NA,1.33104408171491,1.33104408171491,0.285963658109403,0,"ug/ml","2012-07-31T02:00:00",0,0,7,"Pharmacokinetic concentration of Xanomeline",1,"XANOMELINE",1,1,"709",709,1007,"1007",1007,54,"F",2,1,"Xanomeline Low Dose","TRANSDERMAL",3,"WHITE",5,"NOT HISPANIC OR LATINO",2,"PATCH",3,"USA",235,"United States of America",158.75,59.88,18,20,8.55,106.08,23.760431520863,2.64583333333333,50.4870588235294,53.8062214136656,70
"CDISCPILOT01","01-709-1007",0,4,4,4,4,54,54,"XAN",0.01,2,"N",0,NA,1.66339051009914,1.66339051009914,0.508857995313619,0,"ug/ml","2012-07-31T04:00:00",0,0,8,"Pharmacokinetic concentration of Xanomeline",1,"XANOMELINE",1,1,"709",709,1007,"1007",1007,54,"F",2,1,"Xanomeline Low Dose","TRANSDERMAL",3,"WHITE",5,"NOT HISPANIC OR LATINO",2,"PATCH",3,"USA",235,"United States of America",158.75,59.88,18,20,8.55,106.08,23.760431520863,2.64583333333333,50.4870588235294,53.8062214136656,71
"CDISCPILOT01","01-709-1007",0,6,6,6,6,54,54,"XAN",0.01,2,"N",0,NA,1.74637359832072,1.74637359832072,0.557541408366027,0,"ug/ml","2012-07-31T06:00:00",0,0,9,"Pharmacokinetic concentration of Xanomeline",1,"XANOMELINE",1,1,"709",709,1007,"1007",1007,54,"F",2,1,"Xanomeline Low Dose","TRANSDERMAL",3,"WHITE",5,"NOT HISPANIC OR LATINO",2,"PATCH",3,"USA",235,"United States of America",158.75,59.88,18,20,8.55,106.08,23.760431520863,2.64583333333333,50.4870588235294,53.8062214136656,72
"CDISCPILOT01","01-709-1007",0,3,6,6,3,54,54,"XAN",0.01,3,"N",0,NA,26.9715907794911,26.9715907794911,3.29478411870812,0,"ug/ml","2012-07-31T06:00:00",0,0,10,"Pharmacokinetic concentration of Xanomeline",1,"XANOMELINE",1,1,"709",709,1007,"1007",1007,54,"F",2,1,"Xanomeline Low Dose","TRANSDERMAL",3,"WHITE",5,"NOT HISPANIC OR LATINO",2,"PATCH",3,"USA",235,"United States of America",158.75,59.88,18,20,8.55,106.08,23.760431520863,2.64583333333333,50.4870588235294,53.8062214136656,73
"CDISCPILOT01","01-709-1007",0,8,8,8,8,54,54,"XAN",0.01,2,"N",0,NA,1.76709352290143,1.76709352290143,0.569336119442001,0,"ug/ml","2012-07-31T08:00:00",0,0,11,"Pharmacokinetic concentration of Xanomeline",1,"XANOMELINE",1,1,"709",709,1007,"1007",1007,54,"F",2,1,"Xanomeline Low Dose","TRANSDERMAL",3,"WHITE",5,"NOT HISPANIC OR LATINO",2,"PATCH",3,"USA",235,"United States of America",158.75,59.88,18,20,8.55,106.08,23.760431520863,2.64583333333333,50.4870588235294,53.8062214136656,74
"CDISCPILOT01","01-709-1007",0,12,12,12,12,54,54,"XAN",0.01,2,"N",0,NA,0.531657812914186,0.531657812914186,-0.631755205395944,0,"ug/ml","2012-07-31T12:00:00",0,0,12,"Pharmacokinetic concentration of Xanomeline",1,"XANOMELINE",1,1,"709",709,1007,"1007",1007,54,"F",2,1,"Xanomeline Low Dose","TRANSDERMAL",3,"WHITE",5,"NOT HISPANIC OR LATINO",2,"PATCH",3,"USA",235,"United States of America",158.75,59.88,18,20,8.55,106.08,23.760431520863,2.64583333333333,50.4870588235294,53.8062214136656,75
"CDISCPILOT01","01-709-1007",0,9,12,12,9,54,54,"XAN",0.01,3,"N",0,NA,22.8089676198571,22.8089676198571,3.12715377529207,0,"ug/ml","2012-07-31T12:00:00",0,0,13,"Pharmacokinetic concentration of Xanomeline",1,"XANOMELINE",1,1,"709",709,1007,"1007",1007,54,"F",2,1,"Xanomeline Low Dose","TRANSDERMAL",3,"WHITE",5,"NOT HISPANIC OR LATINO",2,"PATCH",3,"USA",235,"United States of America",158.75,59.88,18,20,8.55,106.08,23.760431520863,2.64583333333333,50.4870588235294,53.8062214136656,76
"CDISCPILOT01","01-709-1007",0,16,16,16,16,54,54,"XAN",0.01,2,"N",0,NA,0.159335868775179,0.159335868775179,-1.83674092247047,0,"ug/ml","2012-07-31T16:00:00",0,0,14,"Pharmacokinetic concentration of Xanomeline",1,"XANOMELINE",1,1,"709",709,1007,"1007",1007,54,"F",2,1,"Xanomeline Low Dose","TRANSDERMAL",3,"WHITE",5,"NOT HISPANIC OR LATINO",2,"PATCH",3,"USA",235,"United States of America",158.75,59.88,18,20,8.55,106.08,23.760431520863,2.64583333333333,50.4870588235294,53.8062214136656,77
"CDISCPILOT01","01-709-1007",0,24,24,24,24,54,54,"XAN",0.01,2,"N",0,NA,0.0143112067959289,0.0143112067959289,-4.24671235661952,0,"ug/ml","2012-08-01T00:00:00",0,0,15,"Pharmacokinetic concentration of Xanomeline",1,"XANOMELINE",1,1,"709",709,1007,"1007",1007,54,"F",2,1,"Xanomeline Low Dose","TRANSDERMAL",3,"WHITE",5,"NOT HISPANIC OR LATINO",2,"PATCH",3,"USA",235,"United States of America",158.75,59.88,18,20,8.55,106.08,23.760431520863,2.64583333333333,50.4870588235294,53.8062214136656,78
"CDISCPILOT01","01-709-1007",0,18,24,24,18,54,54,"XAN",0.01,3,"N",0,NA,14.4837213005892,14.4837213005892,2.67302534983683,0,"ug/ml","2012-08-01T00:00:00",0,0,16,"Pharmacokinetic concentration of Xanomeline",1,"XANOMELINE",1,1,"709",709,1007,"1007",1007,54,"F",2,1,"Xanomeline Low Dose","TRANSDERMAL",3,"WHITE",5,"NOT HISPANIC OR LATINO",2,"PATCH",3,"USA",235,"United States of America",158.75,59.88,18,20,8.55,106.08,23.760431520863,2.64583333333333,50.4870588235294,53.8062214136656,79
"CDISCPILOT01","01-709-1007",1,24,24,0,0,54,54,"DOSE",NA,1,"N",0,54,NA,NA,NA,1,NA,"2012-08-01T00:00:00",1,1,17,"Xanomeline Patch Dose",2,"XANOMELINE",1,1,"709",709,1007,"1007",1007,54,"F",2,1,"Xanomeline Low Dose","TRANSDERMAL",3,"WHITE",5,"NOT HISPANIC OR LATINO",2,"PATCH",3,"USA",235,"United States of America",158.75,59.88,18,20,8.55,106.08,23.760431520863,2.64583333333333,50.4870588235294,53.8062214136656,80
"CDISCPILOT01","01-709-1007",0,36,36,12,12,54,54,"XAN",0.01,2,"Y",1,NA,NA,NA,NA,1,"ug/ml","2012-08-01T12:00:00",0,0,18,"Pharmacokinetic concentration of Xanomeline",1,"XANOMELINE",1,1,"709",709,1007,"1007",1007,54,"F",2,1,"Xanomeline Low Dose","TRANSDERMAL",3,"WHITE",5,"NOT HISPANIC OR LATINO",2,"PATCH",3,"USA",235,"United States of America",158.75,59.88,18,20,8.55,106.08,23.760431520863,2.64583333333333,50.4870588235294,53.8062214136656,81
"CDISCPILOT01","01-709-1007",0,48,48,24,24,54,54,"XAN",0.01,2,"Y",1,NA,NA,NA,NA,1,"ug/ml","2012-08-02T00:00:00",0,0,19,"Pharmacokinetic concentration of Xanomeline",1,"XANOMELINE",1,1,"709",709,1007,"1007",1007,54,"F",2,1,"Xanomeline Low Dose","TRANSDERMAL",3,"WHITE",5,"NOT HISPANIC OR LATINO",2,"PATCH",3,"USA",235,"United States of America",158.75,59.88,18,20,8.55,106.08,23.760431520863,2.64583333333333,50.4870588235294,53.8062214136656,82
"CDISCPILOT01","01-709-1007",0,37,48,24,13,54,54,"XAN",0.01,3,"Y",1,NA,NA,NA,NA,1,"ug/ml","2012-08-02T00:00:00",0,0,20,"Pharmacokinetic concentration of Xanomeline",1,"XANOMELINE",1,1,"709",709,1007,"1007",1007,54,"F",2,1,"Xanomeline Low Dose","TRANSDERMAL",3,"WHITE",5,"NOT HISPANIC OR LATINO",2,"PATCH",3,"USA",235,"United States of America",158.75,59.88,18,20,8.55,106.08,23.760431520863,2.64583333333333,50.4870588235294,53.8062214136656,83
"CDISCPILOT01","01-709-1007",1,48,48,0,0,54,54,"DOSE",NA,1,"N",0,54,NA,NA,NA,1,NA,"2012-08-02T00:00:00",1,1,21,"Xanomeline Patch Dose",2,"XANOMELINE",1,1,"709",709,1007,"1007",1007,54,"F",2,1,"Xanomeline Low Dose","TRANSDERMAL",3,"WHITE",5,"NOT HISPANIC OR LATINO",2,"PATCH",3,"USA",235,"United States of America",158.75,59.88,18,20,8.55,106.08,23.760431520863,2.64583333333333,50.4870588235294,53.8062214136656,84
"CDISCPILOT01","01-704-1008",0,0,-0.5,-0.5,0,54,81,"XAN",0.01,2,"Y",1,NA,0,0,NA,0,"ug/ml","2013-01-12T23:30:00",0,0,1,"Pharmacokinetic concentration of Xanomeline",1,"XANOMELINE",1,1,"704",704,1008,"1008",1008,76,"F",2,2,"Xanomeline High Dose","TRANSDERMAL",3,"WHITE",5,"NOT HISPANIC OR LATINO",2,"PATCH",3,"USA",235,"United States of America",148,46.72,16,19,22.23,79.56,21.3294375456538,2.46666666666667,39.0860130718954,66.2730276192129,85
"CDISCPILOT01","01-704-1008",1,0,0,0,0,54,81,"DOSE",NA,1,"N",0,54,NA,NA,NA,1,NA,"2013-01-13T00:00:00",1,1,2,"Xanomeline Patch Dose",2,"XANOMELINE",1,1,"704",704,1008,"1008",1008,76,"F",2,2,"Xanomeline High Dose","TRANSDERMAL",3,"WHITE",5,"NOT HISPANIC OR LATINO",2,"PATCH",3,"USA",235,"United States of America",148,46.72,16,19,22.23,79.56,21.3294375456538,2.46666666666667,39.0860130718954,66.2730276192129,86
"CDISCPILOT01","01-704-1008",0,0.08,0.0833333333333333,0.0833333333333333,0.08,54,81,"XAN",0.01,2,"N",0,NA,0.112126219495447,0.112126219495447,-2.18813008244875,0,"ug/ml","2013-01-13T00:05:00",0,0,3,"Pharmacokinetic concentration of Xanomeline",1,"XANOMELINE",1,1,"704",704,1008,"1008",1008,76,"F",2,2,"Xanomeline High Dose","TRANSDERMAL",3,"WHITE",5,"NOT HISPANIC OR LATINO",2,"PATCH",3,"USA",235,"United States of America",148,46.72,16,19,22.23,79.56,21.3294375456538,2.46666666666667,39.0860130718954,66.2730276192129,87
"CDISCPILOT01","01-704-1008",0,0.5,0.5,0.5,0.5,54,81,"XAN",0.01,2,"N",0,NA,0.602906697625771,0.602906697625771,-0.505992824532441,0,"ug/ml","2013-01-13T00:30:00",0,0,4,"Pharmacokinetic concentration of Xanomeline",1,"XANOMELINE",1,1,"704",704,1008,"1008",1008,76,"F",2,2,"Xanomeline High Dose","TRANSDERMAL",3,"WHITE",5,"NOT HISPANIC OR LATINO",2,"PATCH",3,"USA",235,"United States of America",148,46.72,16,19,22.23,79.56,21.3294375456538,2.46666666666667,39.0860130718954,66.2730276192129,88
"CDISCPILOT01","01-704-1008",0,1,1,1,1,54,81,"XAN",0.01,2,"N",0,NA,1.01871921429109,1.01871921429109,0.0185461660155546,0,"ug/ml","2013-01-13T01:00:00",0,0,5,"Pharmacokinetic concentration of Xanomeline",1,"XANOMELINE",1,1,"704",704,1008,"1008",1008,76,"F",2,2,"Xanomeline High Dose","TRANSDERMAL",3,"WHITE",5,"NOT HISPANIC OR LATINO",2,"PATCH",3,"USA",235,"United States of America",148,46.72,16,19,22.23,79.56,21.3294375456538,2.46666666666667,39.0860130718954,66.2730276192129,89
"CDISCPILOT01","01-704-1008",0,1.5,1.5,1.5,1.5,54,81,"XAN",0.01,2,"N",0,NA,1.305496670399,1.305496670399,0.266583558712585,0,"ug/ml","2013-01-13T01:30:00",0,0,6,"Pharmacokinetic concentration of Xanomeline",1,"XANOMELINE",1,1,"704",704,1008,"1008",1008,76,"F",2,2,"Xanomeline High Dose","TRANSDERMAL",3,"WHITE",5,"NOT HISPANIC OR LATINO",2,"PATCH",3,"USA",235,"United States of America",148,46.72,16,19,22.23,79.56,21.3294375456538,2.46666666666667,39.0860130718954,66.2730276192129,90
"CDISCPILOT01","01-704-1008",0,2,2,2,2,54,81,"XAN",0.01,2,"N",0,NA,1.50328126329985,1.50328126329985,0.407650227860715,0,"ug/ml","2013-01-13T02:00:00",0,0,7,"Pharmacokinetic concentration of Xanomeline",1,"XANOMELINE",1,1,"704",704,1008,"1008",1008,76,"F",2,2,"Xanomeline High Dose","TRANSDERMAL",3,"WHITE",5,"NOT HISPANIC OR LATINO",2,"PATCH",3,"USA",235,"United States of America",148,46.72,16,19,22.23,79.56,21.3294375456538,2.46666666666667,39.0860130718954,66.2730276192129,91
"CDISCPILOT01","01-704-1008",0,4,4,4,4,54,81,"XAN",0.01,2,"N",0,NA,1.84339959768546,1.84339959768546,0.611611474331479,0,"ug/ml","2013-01-13T04:00:00",0,0,8,"Pharmacokinetic concentration of Xanomeline",1,"XANOMELINE",1,1,"704",704,1008,"1008",1008,76,"F",2,2,"Xanomeline High Dose","TRANSDERMAL",3,"WHITE",5,"NOT HISPANIC OR LATINO",2,"PATCH",3,"USA",235,"United States of America",148,46.72,16,19,22.23,79.56,21.3294375456538,2.46666666666667,39.0860130718954,66.2730276192129,92
"CDISCPILOT01","01-704-1008",0,6,6,6,6,54,81,"XAN",0.01,2,"N",0,NA,1.92035158545342,1.92035158545342,0.652508286699395,0,"ug/ml","2013-01-13T06:00:00",0,0,9,"Pharmacokinetic concentration of Xanomeline",1,"XANOMELINE",1,1,"704",704,1008,"1008",1008,76,"F",2,2,"Xanomeline High Dose","TRANSDERMAL",3,"WHITE",5,"NOT HISPANIC OR LATINO",2,"PATCH",3,"USA",235,"United States of America",148,46.72,16,19,22.23,79.56,21.3294375456538,2.46666666666667,39.0860130718954,66.2730276192129,93
"CDISCPILOT01","01-704-1008",0,3,6,6,3,54,81,"XAN",0.01,3,"N",0,NA,24.6108075787748,24.6108075787748,3.20318567893058,0,"ug/ml","2013-01-13T06:00:00",0,0,10,"Pharmacokinetic concentration of Xanomeline",1,"XANOMELINE",1,1,"704",704,1008,"1008",1008,76,"F",2,2,"Xanomeline High Dose","TRANSDERMAL",3,"WHITE",5,"NOT HISPANIC OR LATINO",2,"PATCH",3,"USA",235,"United States of America",148,46.72,16,19,22.23,79.56,21.3294375456538,2.46666666666667,39.0860130718954,66.2730276192129,94
"CDISCPILOT01","01-704-1008",0,8,8,8,8,54,81,"XAN",0.01,2,"N",0,NA,1.93776202124229,1.93776202124229,0.661533709871911,0,"ug/ml","2013-01-13T08:00:00",0,0,11,"Pharmacokinetic concentration of Xanomeline",1,"XANOMELINE",1,1,"704",704,1008,"1008",1008,76,"F",2,2,"Xanomeline High Dose","TRANSDERMAL",3,"WHITE",5,"NOT HISPANIC OR LATINO",2,"PATCH",3,"USA",235,"United States of America",148,46.72,16,19,22.23,79.56,21.3294375456538,2.46666666666667,39.0860130718954,66.2730276192129,95
"CDISCPILOT01","01-704-1008",0,12,12,12,12,54,81,"XAN",0.01,2,"N",0,NA,0.534496364572232,0.534496364572232,-0.626430350088844,0,"ug/ml","2013-01-13T12:00:00",0,0,12,"Pharmacokinetic concentration of Xanomeline",1,"XANOMELINE",1,1,"704",704,1008,"1008",1008,76,"F",2,2,"Xanomeline High Dose","TRANSDERMAL",3,"WHITE",5,"NOT HISPANIC OR LATINO",2,"PATCH",3,"USA",235,"United States of America",148,46.72,16,19,22.23,79.56,21.3294375456538,2.46666666666667,39.0860130718954,66.2730276192129,96
"CDISCPILOT01","01-704-1008",0,9,12,12,9,54,81,"XAN",0.01,3,"N",0,NA,20.1524718563507,20.1524718563507,3.00332695364075,0,"ug/ml","2013-01-13T12:00:00",0,0,13,"Pharmacokinetic concentration of Xanomeline",1,"XANOMELINE",1,1,"704",704,1008,"1008",1008,76,"F",2,2,"Xanomeline High Dose","TRANSDERMAL",3,"WHITE",5,"NOT HISPANIC OR LATINO",2,"PATCH",3,"USA",235,"United States of America",148,46.72,16,19,22.23,79.56,21.3294375456538,2.46666666666667,39.0860130718954,66.2730276192129,97
"CDISCPILOT01","01-704-1008",0,16,16,16,16,54,81,"XAN",0.01,2,"N",0,NA,0.147044767386013,0.147044767386013,-1.9170181985254,0,"ug/ml","2013-01-13T16:00:00",0,0,14,"Pharmacokinetic concentration of Xanomeline",1,"XANOMELINE",1,1,"704",704,1008,"1008",1008,76,"F",2,2,"Xanomeline High Dose","TRANSDERMAL",3,"WHITE",5,"NOT HISPANIC OR LATINO",2,"PATCH",3,"USA",235,"United States of America",148,46.72,16,19,22.23,79.56,21.3294375456538,2.46666666666667,39.0860130718954,66.2730276192129,98
"CDISCPILOT01","01-704-1008",0,24,24,24,24,54,81,"XAN",0.01,2,"N",0,NA,0.0111290786777712,0.0111290786777712,-4.49819389539852,0,"ug/ml","2013-01-14T00:00:00",0,0,15,"Pharmacokinetic concentration of Xanomeline",1,"XANOMELINE",1,1,"704",704,1008,"1008",1008,76,"F",2,2,"Xanomeline High Dose","TRANSDERMAL",3,"WHITE",5,"NOT HISPANIC OR LATINO",2,"PATCH",3,"USA",235,"United States of America",148,46.72,16,19,22.23,79.56,21.3294375456538,2.46666666666667,39.0860130718954,66.2730276192129,99
"CDISCPILOT01","01-704-1008",0,18,24,24,18,54,81,"XAN",0.01,3,"N",0,NA,11.2358004115025,11.2358004115025,2.41910514577901,0,"ug/ml","2013-01-14T00:00:00",0,0,16,"Pharmacokinetic concentration of Xanomeline",1,"XANOMELINE",1,1,"704",704,1008,"1008",1008,76,"F",2,2,"Xanomeline High Dose","TRANSDERMAL",3,"WHITE",5,"NOT HISPANIC OR LATINO",2,"PATCH",3,"USA",235,"United States of America",148,46.72,16,19,22.23,79.56,21.3294375456538,2.46666666666667,39.0860130718954,66.2730276192129,100
"CDISCPILOT01","01-704-1008",1,24,24,0,0,54,81,"DOSE",NA,1,"N",0,54,NA,NA,NA,1,NA,"2013-01-14T00:00:00",1,1,17,"Xanomeline Patch Dose",2,"XANOMELINE",1,1,"704",704,1008,"1008",1008,76,"F",2,2,"Xanomeline High Dose","TRANSDERMAL",3,"WHITE",5,"NOT HISPANIC OR LATINO",2,"PATCH",3,"USA",235,"United States of America",148,46.72,16,19,22.23,79.56,21.3294375456538,2.46666666666667,39.0860130718954,66.2730276192129,101
"CDISCPILOT01","01-704-1008",0,36,36,12,12,54,81,"XAN",0.01,2,"Y",1,NA,NA,NA,NA,1,"ug/ml","2013-01-14T12:00:00",0,0,18,"Pharmacokinetic concentration of Xanomeline",1,"XANOMELINE",1,1,"704",704,1008,"1008",1008,76,"F",2,2,"Xanomeline High Dose","TRANSDERMAL",3,"WHITE",5,"NOT HISPANIC OR LATINO",2,"PATCH",3,"USA",235,"United States of America",148,46.72,16,19,22.23,79.56,21.3294375456538,2.46666666666667,39.0860130718954,66.2730276192129,102
"CDISCPILOT01","01-704-1008",0,48,48,24,24,54,81,"XAN",0.01,2,"Y",1,NA,NA,NA,NA,1,"ug/ml","2013-01-15T00:00:00",0,0,19,"Pharmacokinetic concentration of Xanomeline",1,"XANOMELINE",1,1,"704",704,1008,"1008",1008,76,"F",2,2,"Xanomeline High Dose","TRANSDERMAL",3,"WHITE",5,"NOT HISPANIC OR LATINO",2,"PATCH",3,"USA",235,"United States of America",148,46.72,16,19,22.23,79.56,21.3294375456538,2.46666666666667,39.0860130718954,66.2730276192129,103
"CDISCPILOT01","01-704-1008",0,37,48,24,13,54,81,"XAN",0.01,3,"Y",1,NA,NA,NA,NA,1,"ug/ml","2013-01-15T00:00:00",0,0,20,"Pharmacokinetic concentration of Xanomeline",1,"XANOMELINE",1,1,"704",704,1008,"1008",1008,76,"F",2,2,"Xanomeline High Dose","TRANSDERMAL",3,"WHITE",5,"NOT HISPANIC OR LATINO",2,"PATCH",3,"USA",235,"United States of America",148,46.72,16,19,22.23,79.56,21.3294375456538,2.46666666666667,39.0860130718954,66.2730276192129,104
"CDISCPILOT01","01-704-1008",1,48,48,0,0,54,81,"DOSE",NA,1,"N",0,54,NA,NA,NA,1,NA,"2013-01-15T00:00:00",1,1,21,"Xanomeline Patch Dose",2,"XANOMELINE",1,1,"704",704,1008,"1008",1008,76,"F",2,2,"Xanomeline High Dose","TRANSDERMAL",3,"WHITE",5,"NOT HISPANIC OR LATINO",2,"PATCH",3,"USA",235,"United States of America",148,46.72,16,19,22.23,79.56,21.3294375456538,2.46666666666667,39.0860130718954,66.2730276192129,105
"CDISCPILOT01","01-704-1009",0,0,-0.5,-0.5,0,54,54,"XAN",0.01,2,"Y",1,NA,0,0,NA,0,"ug/ml","2013-08-26T23:30:00",0,0,1,"Pharmacokinetic concentration of Xanomeline",1,"XANOMELINE",1,1,"704",704,1009,"1009",1009,83,"M",1,1,"Xanomeline Low Dose","TRANSDERMAL",3,"WHITE",5,"NOT HISPANIC OR LATINO",2,"PATCH",3,"USA",235,"United States of America",179.07,66.68,24,27,10.26,132.6,20.7945690273957,2.9845,35.2559185520362,45.9202358007726,106
"CDISCPILOT01","01-704-1009",1,0,0,0,0,54,54,"DOSE",NA,1,"N",0,54,NA,NA,NA,1,NA,"2013-08-27T00:00:00",1,1,2,"Xanomeline Patch Dose",2,"XANOMELINE",1,1,"704",704,1009,"1009",1009,83,"M",1,1,"Xanomeline Low Dose","TRANSDERMAL",3,"WHITE",5,"NOT HISPANIC OR LATINO",2,"PATCH",3,"USA",235,"United States of America",179.07,66.68,24,27,10.26,132.6,20.7945690273957,2.9845,35.2559185520362,45.9202358007726,107
"CDISCPILOT01","01-704-1009",0,0.08,0.0833333333333333,0.0833333333333333,0.08,54,54,"XAN",0.01,2,"N",0,NA,0.108912724791648,0.108912724791648,-2.21720840746131,0,"ug/ml","2013-08-27T00:05:00",0,0,3,"Pharmacokinetic concentration of Xanomeline",1,"XANOMELINE",1,1,"704",704,1009,"1009",1009,83,"M",1,1,"Xanomeline Low Dose","TRANSDERMAL",3,"WHITE",5,"NOT HISPANIC OR LATINO",2,"PATCH",3,"USA",235,"United States of America",179.07,66.68,24,27,10.26,132.6,20.7945690273957,2.9845,35.2559185520362,45.9202358007726,108
"CDISCPILOT01","01-704-1009",0,0.5,0.5,0.5,0.5,54,54,"XAN",0.01,2,"N",0,NA,0.586371711994885,0.586371711994885,-0.53380136969115,0,"ug/ml","2013-08-27T00:30:00",0,0,4,"Pharmacokinetic concentration of Xanomeline",1,"XANOMELINE",1,1,"704",704,1009,"1009",1009,83,"M",1,1,"Xanomeline Low Dose","TRANSDERMAL",3,"WHITE",5,"NOT HISPANIC OR LATINO",2,"PATCH",3,"USA",235,"United States of America",179.07,66.68,24,27,10.26,132.6,20.7945690273957,2.9845,35.2559185520362,45.9202358007726,109
"CDISCPILOT01","01-704-1009",0,1,1,1,1,54,54,"XAN",0.01,2,"N",0,NA,0.992099107050601,0.992099107050601,-0.0079322703865573,0,"ug/ml","2013-08-27T01:00:00",0,0,5,"Pharmacokinetic concentration of Xanomeline",1,"XANOMELINE",1,1,"704",704,1009,"1009",1009,83,"M",1,1,"Xanomeline Low Dose","TRANSDERMAL",3,"WHITE",5,"NOT HISPANIC OR LATINO",2,"PATCH",3,"USA",235,"United States of America",179.07,66.68,24,27,10.26,132.6,20.7945690273957,2.9845,35.2559185520362,45.9202358007726,110
"CDISCPILOT01","01-704-1009",0,1.5,1.5,1.5,1.5,54,54,"XAN",0.01,2,"N",0,NA,1.27283352129897,1.27283352129897,0.24124553435316,0,"ug/ml","2013-08-27T01:30:00",0,0,6,"Pharmacokinetic concentration of Xanomeline",1,"XANOMELINE",1,1,"704",704,1009,"1009",1009,83,"M",1,1,"Xanomeline Low Dose","TRANSDERMAL",3,"WHITE",5,"NOT HISPANIC OR LATINO",2,"PATCH",3,"USA",235,"United States of America",179.07,66.68,24,27,10.26,132.6,20.7945690273957,2.9845,35.2559185520362,45.9202358007726,111
"CDISCPILOT01","01-704-1009",0,2,2,2,2,54,54,"XAN",0.01,2,"N",0,NA,1.46708170937745,1.46708170937745,0.383275195890222,0,"ug/ml","2013-08-27T02:00:00",0,0,7,"Pharmacokinetic concentration of Xanomeline",1,"XANOMELINE",1,1,"704",704,1009,"1009",1009,83,"M",1,1,"Xanomeline Low Dose","TRANSDERMAL",3,"WHITE",5,"NOT HISPANIC OR LATINO",2,"PATCH",3,"USA",235,"United States of America",179.07,66.68,24,27,10.26,132.6,20.7945690273957,2.9845,35.2559185520362,45.9202358007726,112
"CDISCPILOT01","01-704-1009",0,4,4,4,4,54,54,"XAN",0.01,2,"N",0,NA,1.80336058781194,1.80336058781194,0.58965191746532,0,"ug/ml","2013-08-27T04:00:00",0,0,8,"Pharmacokinetic concentration of Xanomeline",1,"XANOMELINE",1,1,"704",704,1009,"1009",1009,83,"M",1,1,"Xanomeline Low Dose","TRANSDERMAL",3,"WHITE",5,"NOT HISPANIC OR LATINO",2,"PATCH",3,"USA",235,"United States of America",179.07,66.68,24,27,10.26,132.6,20.7945690273957,2.9845,35.2559185520362,45.9202358007726,113
"CDISCPILOT01","01-704-1009",0,6,6,6,6,54,54,"XAN",0.01,2,"N",0,NA,1.8804411507815,1.8804411507815,0.631506403985767,0,"ug/ml","2013-08-27T06:00:00",0,0,9,"Pharmacokinetic concentration of Xanomeline",1,"XANOMELINE",1,1,"704",704,1009,"1009",1009,83,"M",1,1,"Xanomeline Low Dose","TRANSDERMAL",3,"WHITE",5,"NOT HISPANIC OR LATINO",2,"PATCH",3,"USA",235,"United States of America",179.07,66.68,24,27,10.26,132.6,20.7945690273957,2.9845,35.2559185520362,45.9202358007726,114
"CDISCPILOT01","01-704-1009",0,3,6,6,3,54,54,"XAN",0.01,3,"N",0,NA,24.906848122034,24.906848122034,3.21514279063951,0,"ug/ml","2013-08-27T06:00:00",0,0,10,"Pharmacokinetic concentration of Xanomeline",1,"XANOMELINE",1,1,"704",704,1009,"1009",1009,83,"M",1,1,"Xanomeline Low Dose","TRANSDERMAL",3,"WHITE",5,"NOT HISPANIC OR LATINO",2,"PATCH",3,"USA",235,"United States of America",179.07,66.68,24,27,10.26,132.6,20.7945690273957,2.9845,35.2559185520362,45.9202358007726,115
"CDISCPILOT01","01-704-1009",0,8,8,8,8,54,54,"XAN",0.01,2,"N",0,NA,1.89810926367448,1.89810926367448,0.640858266325546,0,"ug/ml","2013-08-27T08:00:00",0,0,11,"Pharmacokinetic concentration of Xanomeline",1,"XANOMELINE",1,1,"704",704,1009,"1009",1009,83,"M",1,1,"Xanomeline Low Dose","TRANSDERMAL",3,"WHITE",5,"NOT HISPANIC OR LATINO",2,"PATCH",3,"USA",235,"United States of America",179.07,66.68,24,27,10.26,132.6,20.7945690273957,2.9845,35.2559185520362,45.9202358007726,116
"CDISCPILOT01","01-704-1009",0,12,12,12,12,54,54,"XAN",0.01,2,"N",0,NA,0.529587769941572,0.529587769941572,-0.635656367636614,0,"ug/ml","2013-08-27T12:00:00",0,0,12,"Pharmacokinetic concentration of Xanomeline",1,"XANOMELINE",1,1,"704",704,1009,"1009",1009,83,"M",1,1,"Xanomeline Low Dose","TRANSDERMAL",3,"WHITE",5,"NOT HISPANIC OR LATINO",2,"PATCH",3,"USA",235,"United States of America",179.07,66.68,24,27,10.26,132.6,20.7945690273957,2.9845,35.2559185520362,45.9202358007726,117
"CDISCPILOT01","01-704-1009",0,9,12,12,9,54,54,"XAN",0.01,3,"N",0,NA,20.4875791305618,20.4875791305618,3.019818806445,0,"ug/ml","2013-08-27T12:00:00",0,0,13,"Pharmacokinetic concentration of Xanomeline",1,"XANOMELINE",1,1,"704",704,1009,"1009",1009,83,"M",1,1,"Xanomeline Low Dose","TRANSDERMAL",3,"WHITE",5,"NOT HISPANIC OR LATINO",2,"PATCH",3,"USA",235,"United States of America",179.07,66.68,24,27,10.26,132.6,20.7945690273957,2.9845,35.2559185520362,45.9202358007726,118
"CDISCPILOT01","01-704-1009",0,16,16,16,16,54,54,"XAN",0.01,2,"N",0,NA,0.147351369339608,0.147351369339608,-1.91493527673263,0,"ug/ml","2013-08-27T16:00:00",0,0,14,"Pharmacokinetic concentration of Xanomeline",1,"XANOMELINE",1,1,"704",704,1009,"1009",1009,83,"M",1,1,"Xanomeline Low Dose","TRANSDERMAL",3,"WHITE",5,"NOT HISPANIC OR LATINO",2,"PATCH",3,"USA",235,"United States of America",179.07,66.68,24,27,10.26,132.6,20.7945690273957,2.9845,35.2559185520362,45.9202358007726,119
"CDISCPILOT01","01-704-1009",0,24,24,24,24,54,54,"XAN",0.01,2,"N",0,NA,0.0114073990467872,0.0114073990467872,-4.47349309492467,0,"ug/ml","2013-08-28T00:00:00",0,0,15,"Pharmacokinetic concentration of Xanomeline",1,"XANOMELINE",1,1,"704",704,1009,"1009",1009,83,"M",1,1,"Xanomeline Low Dose","TRANSDERMAL",3,"WHITE",5,"NOT HISPANIC OR LATINO",2,"PATCH",3,"USA",235,"United States of America",179.07,66.68,24,27,10.26,132.6,20.7945690273957,2.9845,35.2559185520362,45.9202358007726,120
"CDISCPILOT01","01-704-1009",0,18,24,24,18,54,54,"XAN",0.01,3,"N",0,NA,11.6490411476174,11.6490411476174,2.45522387169893,0,"ug/ml","2013-08-28T00:00:00",0,0,16,"Pharmacokinetic concentration of Xanomeline",1,"XANOMELINE",1,1,"704",704,1009,"1009",1009,83,"M",1,1,"Xanomeline Low Dose","TRANSDERMAL",3,"WHITE",5,"NOT HISPANIC OR LATINO",2,"PATCH",3,"USA",235,"United States of America",179.07,66.68,24,27,10.26,132.6,20.7945690273957,2.9845,35.2559185520362,45.9202358007726,121
"CDISCPILOT01","01-704-1009",1,24,24,0,0,54,54,"DOSE",NA,1,"N",0,54,NA,NA,NA,1,NA,"2013-08-28T00:00:00",1,1,17,"Xanomeline Patch Dose",2,"XANOMELINE",1,1,"704",704,1009,"1009",1009,83,"M",1,1,"Xanomeline Low Dose","TRANSDERMAL",3,"WHITE",5,"NOT HISPANIC OR LATINO",2,"PATCH",3,"USA",235,"United States of America",179.07,66.68,24,27,10.26,132.6,20.7945690273957,2.9845,35.2559185520362,45.9202358007726,122
"CDISCPILOT01","01-704-1009",0,36,36,12,12,54,54,"XAN",0.01,2,"Y",1,NA,NA,NA,NA,1,"ug/ml","2013-08-28T12:00:00",0,0,18,"Pharmacokinetic concentration of Xanomeline",1,"XANOMELINE",1,1,"704",704,1009,"1009",1009,83,"M",1,1,"Xanomeline Low Dose","TRANSDERMAL",3,"WHITE",5,"NOT HISPANIC OR LATINO",2,"PATCH",3,"USA",235,"United States of America",179.07,66.68,24,27,10.26,132.6,20.7945690273957,2.9845,35.2559185520362,45.9202358007726,123
"CDISCPILOT01","01-704-1009",0,48,48,24,24,54,54,"XAN",0.01,2,"Y",1,NA,NA,NA,NA,1,"ug/ml","2013-08-29T00:00:00",0,0,19,"Pharmacokinetic concentration of Xanomeline",1,"XANOMELINE",1,1,"704",704,1009,"1009",1009,83,"M",1,1,"Xanomeline Low Dose","TRANSDERMAL",3,"WHITE",5,"NOT HISPANIC OR LATINO",2,"PATCH",3,"USA",235,"United States of America",179.07,66.68,24,27,10.26,132.6,20.7945690273957,2.9845,35.2559185520362,45.9202358007726,124
"CDISCPILOT01","01-704-1009",0,37,48,24,13,54,54,"XAN",0.01,3,"Y",1,NA,NA,NA,NA,1,"ug/ml","2013-08-29T00:00:00",0,0,20,"Pharmacokinetic concentration of Xanomeline",1,"XANOMELINE",1,1,"704",704,1009,"1009",1009,83,"M",1,1,"Xanomeline Low Dose","TRANSDERMAL",3,"WHITE",5,"NOT HISPANIC OR LATINO",2,"PATCH",3,"USA",235,"United States of America",179.07,66.68,24,27,10.26,132.6,20.7945690273957,2.9845,35.2559185520362,45.9202358007726,125
"CDISCPILOT01","01-704-1009",1,48,48,0,0,54,54,"DOSE",NA,1,"N",0,54,NA,NA,NA,1,NA,"2013-08-29T00:00:00",1,1,21,"Xanomeline Patch Dose",2,"XANOMELINE",1,1,"704",704,1009,"1009",1009,83,"M",1,1,"Xanomeline Low Dose","TRANSDERMAL",3,"WHITE",5,"NOT HISPANIC OR LATINO",2,"PATCH",3,"USA",235,"United States of America",179.07,66.68,24,27,10.26,132.6,20.7945690273957,2.9845,35.2559185520362,45.9202358007726,126
"CDISCPILOT01","01-711-1012",0,0,-0.5,-0.5,0,54,81,"XAN",0.01,2,"Y",1,NA,0,0,NA,0,"ug/ml","2013-04-02T23:30:00",0,0,1,"Pharmacokinetic concentration of Xanomeline",1,"XANOMELINE",1,1,"711",711,1012,"1012",1012,67,"F",2,2,"Xanomeline High Dose","TRANSDERMAL",3,"WHITE",5,"NOT HISPANIC OR LATINO",2,"PATCH",3,"USA",235,"United States of America",170.18,80.97,13,19,8.55,97.24,27.9580643812658,2.83633333333333,63.2172192513369,55.0890989257576,127
"CDISCPILOT01","01-711-1012",1,0,0,0,0,54,81,"DOSE",NA,1,"N",0,54,NA,NA,NA,1,NA,"2013-04-03T00:00:00",1,1,2,"Xanomeline Patch Dose",2,"XANOMELINE",1,1,"711",711,1012,"1012",1012,67,"F",2,2,"Xanomeline High Dose","TRANSDERMAL",3,"WHITE",5,"NOT HISPANIC OR LATINO",2,"PATCH",3,"USA",235,"United States of America",170.18,80.97,13,19,8.55,97.24,27.9580643812658,2.83633333333333,63.2172192513369,55.0890989257576,128
"CDISCPILOT01","01-711-1012",0,0.08,0.0833333333333333,0.0833333333333333,0.08,54,81,"XAN",0.01,2,"N",0,NA,0.104338013925167,0.104338013925167,-2.2601195162138,0,"ug/ml","2013-04-03T00:05:00",0,0,3,"Pharmacokinetic concentration of Xanomeline",1,"XANOMELINE",1,1,"711",711,1012,"1012",1012,67,"F",2,2,"Xanomeline High Dose","TRANSDERMAL",3,"WHITE",5,"NOT HISPANIC OR LATINO",2,"PATCH",3,"USA",235,"United States of America",170.18,80.97,13,19,8.55,97.24,27.9580643812658,2.83633333333333,63.2172192513369,55.0890989257576,129
"CDISCPILOT01","01-711-1012",0,0.5,0.5,0.5,0.5,54,81,"XAN",0.01,2,"N",0,NA,0.565361566873091,0.565361566873091,-0.570289811142555,0,"ug/ml","2013-04-03T00:30:00",0,0,4,"Pharmacokinetic concentration of Xanomeline",1,"XANOMELINE",1,1,"711",711,1012,"1012",1012,67,"F",2,2,"Xanomeline High Dose","TRANSDERMAL",3,"WHITE",5,"NOT HISPANIC OR LATINO",2,"PATCH",3,"USA",235,"United States of America",170.18,80.97,13,19,8.55,97.24,27.9580643812658,2.83633333333333,63.2172192513369,55.0890989257576,130
"CDISCPILOT01","01-711-1012",0,1,1,1,1,54,81,"XAN",0.01,2,"N",0,NA,0.963033165572109,0.963033165572109,-0.0376674279306224,0,"ug/ml","2013-04-03T01:00:00",0,0,5,"Pharmacokinetic concentration of Xanomeline",1,"XANOMELINE",1,1,"711",711,1012,"1012",1012,67,"F",2,2,"Xanomeline High Dose","TRANSDERMAL",3,"WHITE",5,"NOT HISPANIC OR LATINO",2,"PATCH",3,"USA",235,"United States of America",170.18,80.97,13,19,8.55,97.24,27.9580643812658,2.83633333333333,63.2172192513369,55.0890989257576,131
"CDISCPILOT01","01-711-1012",0,1.5,1.5,1.5,1.5,54,81,"XAN",0.01,2,"N",0,NA,1.24275274624062,1.24275274624062,0.217328875799593,0,"ug/ml","2013-04-03T01:30:00",0,0,6,"Pharmacokinetic concentration of Xanomeline",1,"XANOMELINE",1,1,"711",711,1012,"1012",1012,67,"F",2,2,"Xanomeline High Dose","TRANSDERMAL",3,"WHITE",5,"NOT HISPANIC OR LATINO",2,"PATCH",3,"USA",235,"United States of America",170.18,80.97,13,19,8.55,97.24,27.9580643812658,2.83633333333333,63.2172192513369,55.0890989257576,132
"CDISCPILOT01","01-711-1012",0,2,2,2,2,54,81,"XAN",0.01,2,"N",0,NA,1.43950565508636,1.43950565508636,0.364299759569746,0,"ug/ml","2013-04-03T02:00:00",0,0,7,"Pharmacokinetic concentration of Xanomeline",1,"XANOMELINE",1,1,"711",711,1012,"1012",1012,67,"F",2,2,"Xanomeline High Dose","TRANSDERMAL",3,"WHITE",5,"NOT HISPANIC OR LATINO",2,"PATCH",3,"USA",235,"United States of America",170.18,80.97,13,19,8.55,97.24,27.9580643812658,2.83633333333333,63.2172192513369,55.0890989257576,133
"CDISCPILOT01","01-711-1012",0,4,4,4,4,54,81,"XAN",0.01,2,"N",0,NA,1.79188183937998,1.79188183937998,0.583266374532749,0,"ug/ml","2013-04-03T04:00:00",0,0,8,"Pharmacokinetic concentration of Xanomeline",1,"XANOMELINE",1,1,"711",711,1012,"1012",1012,67,"F",2,2,"Xanomeline High Dose","TRANSDERMAL",3,"WHITE",5,"NOT HISPANIC OR LATINO",2,"PATCH",3,"USA",235,"United States of America",170.18,80.97,13,19,8.55,97.24,27.9580643812658,2.83633333333333,63.2172192513369,55.0890989257576,134
"CDISCPILOT01","01-711-1012",0,6,6,6,6,54,81,"XAN",0.01,2,"N",0,NA,1.87813990638971,1.87813990638971,0.630281875556375,0,"ug/ml","2013-04-03T06:00:00",0,0,9,"Pharmacokinetic concentration of Xanomeline",1,"XANOMELINE",1,1,"711",711,1012,"1012",1012,67,"F",2,2,"Xanomeline High Dose","TRANSDERMAL",3,"WHITE",5,"NOT HISPANIC OR LATINO",2,"PATCH",3,"USA",235,"United States of America",170.18,80.97,13,19,8.55,97.24,27.9580643812658,2.83633333333333,63.2172192513369,55.0890989257576,135
"CDISCPILOT01","01-711-1012",0,3,6,6,3,54,81,"XAN",0.01,3,"N",0,NA,26.4737967915193,26.4737967915193,3.27615544348662,0,"ug/ml","2013-04-03T06:00:00",0,0,10,"Pharmacokinetic concentration of Xanomeline",1,"XANOMELINE",1,1,"711",711,1012,"1012",1012,67,"F",2,2,"Xanomeline High Dose","TRANSDERMAL",3,"WHITE",5,"NOT HISPANIC OR LATINO",2,"PATCH",3,"USA",235,"United States of America",170.18,80.97,13,19,8.55,97.24,27.9580643812658,2.83633333333333,63.2172192513369,55.0890989257576,136
"CDISCPILOT01","01-711-1012",0,8,8,8,8,54,81,"XAN",0.01,2,"N",0,NA,1.89925499434372,1.89925499434372,0.641461701037709,0,"ug/ml","2013-04-03T08:00:00",0,0,11,"Pharmacokinetic concentration of Xanomeline",1,"XANOMELINE",1,1,"711",711,1012,"1012",1012,67,"F",2,2,"Xanomeline High Dose","TRANSDERMAL",3,"WHITE",5,"NOT HISPANIC OR LATINO",2,"PATCH",3,"USA",235,"United States of America",170.18,80.97,13,19,8.55,97.24,27.9580643812658,2.83633333333333,63.2172192513369,55.0890989257576,137
"CDISCPILOT01","01-711-1012",0,12,12,12,12,54,81,"XAN",0.01,2,"N",0,NA,0.561504991813395,0.561504991813395,-0.577134614703539,0,"ug/ml","2013-04-03T12:00:00",0,0,12,"Pharmacokinetic concentration of Xanomeline",1,"XANOMELINE",1,1,"711",711,1012,"1012",1012,67,"F",2,2,"Xanomeline High Dose","TRANSDERMAL",3,"WHITE",5,"NOT HISPANIC OR LATINO",2,"PATCH",3,"USA",235,"United States of America",170.18,80.97,13,19,8.55,97.24,27.9580643812658,2.83633333333333,63.2172192513369,55.0890989257576,138
"CDISCPILOT01","01-711-1012",0,9,12,12,9,54,81,"XAN",0.01,3,"N",0,NA,22.2517296068196,22.2517296068196,3.10241974072899,0,"ug/ml","2013-04-03T12:00:00",0,0,13,"Pharmacokinetic concentration of Xanomeline",1,"XANOMELINE",1,1,"711",711,1012,"1012",1012,67,"F",2,2,"Xanomeline High Dose","TRANSDERMAL",3,"WHITE",5,"NOT HISPANIC OR LATINO",2,"PATCH",3,"USA",235,"United States of America",170.18,80.97,13,19,8.55,97.24,27.9580643812658,2.83633333333333,63.2172192513369,55.0890989257576,139
"CDISCPILOT01","01-711-1012",0,16,16,16,16,54,81,"XAN",0.01,2,"N",0,NA,0.165409999932621,0.165409999932621,-1.79932803913535,0,"ug/ml","2013-04-03T16:00:00",0,0,14,"Pharmacokinetic concentration of Xanomeline",1,"XANOMELINE",1,1,"711",711,1012,"1012",1012,67,"F",2,2,"Xanomeline High Dose","TRANSDERMAL",3,"WHITE",5,"NOT HISPANIC OR LATINO",2,"PATCH",3,"USA",235,"United States of America",170.18,80.97,13,19,8.55,97.24,27.9580643812658,2.83633333333333,63.2172192513369,55.0890989257576,140
"CDISCPILOT01","01-711-1012",0,24,24,24,24,54,81,"XAN",0.01,2,"N",0,NA,0.0143541685453027,0.0143541685453027,-4.24371488799898,0,"ug/ml","2013-04-04T00:00:00",0,0,15,"Pharmacokinetic concentration of Xanomeline",1,"XANOMELINE",1,1,"711",711,1012,"1012",1012,67,"F",2,2,"Xanomeline High Dose","TRANSDERMAL",3,"WHITE",5,"NOT HISPANIC OR LATINO",2,"PATCH",3,"USA",235,"United States of America",170.18,80.97,13,19,8.55,97.24,27.9580643812658,2.83633333333333,63.2172192513369,55.0890989257576,141
"CDISCPILOT01","01-711-1012",0,18,24,24,18,54,81,"XAN",0.01,3,"N",0,NA,13.8075952374202,13.8075952374202,2.62521882028311,0,"ug/ml","2013-04-04T00:00:00",0,0,16,"Pharmacokinetic concentration of Xanomeline",1,"XANOMELINE",1,1,"711",711,1012,"1012",1012,67,"F",2,2,"Xanomeline High Dose","TRANSDERMAL",3,"WHITE",5,"NOT HISPANIC OR LATINO",2,"PATCH",3,"USA",235,"United States of America",170.18,80.97,13,19,8.55,97.24,27.9580643812658,2.83633333333333,63.2172192513369,55.0890989257576,142
"CDISCPILOT01","01-711-1012",1,24,24,0,0,54,81,"DOSE",NA,1,"N",0,54,NA,NA,NA,1,NA,"2013-04-04T00:00:00",1,1,17,"Xanomeline Patch Dose",2,"XANOMELINE",1,1,"711",711,1012,"1012",1012,67,"F",2,2,"Xanomeline High Dose","TRANSDERMAL",3,"WHITE",5,"NOT HISPANIC OR LATINO",2,"PATCH",3,"USA",235,"United States of America",170.18,80.97,13,19,8.55,97.24,27.9580643812658,2.83633333333333,63.2172192513369,55.0890989257576,143
"CDISCPILOT01","01-711-1012",0,36,36,12,12,54,81,"XAN",0.01,2,"Y",1,NA,NA,NA,NA,1,"ug/ml","2013-04-04T12:00:00",0,0,18,"Pharmacokinetic concentration of Xanomeline",1,"XANOMELINE",1,1,"711",711,1012,"1012",1012,67,"F",2,2,"Xanomeline High Dose","TRANSDERMAL",3,"WHITE",5,"NOT HISPANIC OR LATINO",2,"PATCH",3,"USA",235,"United States of America",170.18,80.97,13,19,8.55,97.24,27.9580643812658,2.83633333333333,63.2172192513369,55.0890989257576,144
"CDISCPILOT01","01-711-1012",0,48,48,24,24,54,81,"XAN",0.01,2,"Y",1,NA,NA,NA,NA,1,"ug/ml","2013-04-05T00:00:00",0,0,19,"Pharmacokinetic concentration of Xanomeline",1,"XANOMELINE",1,1,"711",711,1012,"1012",1012,67,"F",2,2,"Xanomeline High Dose","TRANSDERMAL",3,"WHITE",5,"NOT HISPANIC OR LATINO",2,"PATCH",3,"USA",235,"United States of America",170.18,80.97,13,19,8.55,97.24,27.9580643812658,2.83633333333333,63.2172192513369,55.0890989257576,145
"CDISCPILOT01","01-711-1012",0,37,48,24,13,54,81,"XAN",0.01,3,"Y",1,NA,NA,NA,NA,1,"ug/ml","2013-04-05T00:00:00",0,0,20,"Pharmacokinetic concentration of Xanomeline",1,"XANOMELINE",1,1,"711",711,1012,"1012",1012,67,"F",2,2,"Xanomeline High Dose","TRANSDERMAL",3,"WHITE",5,"NOT HISPANIC OR LATINO",2,"PATCH",3,"USA",235,"United States of America",170.18,80.97,13,19,8.55,97.24,27.9580643812658,2.83633333333333,63.2172192513369,55.0890989257576,146
"CDISCPILOT01","01-711-1012",1,48,48,0,0,54,81,"DOSE",NA,1,"N",0,54,NA,NA,NA,1,NA,"2013-04-05T00:00:00",1,1,21,"Xanomeline Patch Dose",2,"XANOMELINE",1,1,"711",711,1012,"1012",1012,67,"F",2,2,"Xanomeline High Dose","TRANSDERMAL",3,"WHITE",5,"NOT HISPANIC OR LATINO",2,"PATCH",3,"USA",235,"United States of America",170.18,80.97,13,19,8.55,97.24,27.9580643812658,2.83633333333333,63.2172192513369,55.0890989257576,147
"CDISCPILOT01","01-704-1017",0,0,-0.5,-0.5,0,54,81,"XAN",0.01,2,"Y",1,NA,0,0,NA,0,"ug/ml","2013-10-05T23:30:00",0,0,1,"Pharmacokinetic concentration of Xanomeline",1,"XANOMELINE",1,1,"704",704,1017,"1017",1017,77,"M",1,2,"Xanomeline High Dose","TRANSDERMAL",3,"WHITE",5,"NOT HISPANIC OR LATINO",2,"PATCH",3,"USA",235,"United States of America",170.18,63.05,10,13,11.97,159.12,21.7704823914883,2.83633333333333,30.7047794117647,38.2994608001766,148
"CDISCPILOT01","01-704-1017",1,0,0,0,0,54,81,"DOSE",NA,1,"N",0,54,NA,NA,NA,1,NA,"2013-10-06T00:00:00",1,1,2,"Xanomeline Patch Dose",2,"XANOMELINE",1,1,"704",704,1017,"1017",1017,77,"M",1,2,"Xanomeline High Dose","TRANSDERMAL",3,"WHITE",5,"NOT HISPANIC OR LATINO",2,"PATCH",3,"USA",235,"United States of America",170.18,63.05,10,13,11.97,159.12,21.7704823914883,2.83633333333333,30.7047794117647,38.2994608001766,149
"CDISCPILOT01","01-704-1017",0,0.08,0.0833333333333333,0.0833333333333333,0.08,54,81,"XAN",0.01,2,"N",0,NA,0.0988619573126184,0.0988619573126184,-2.31403077246644,0,"ug/ml","2013-10-06T00:05:00",0,0,3,"Pharmacokinetic concentration of Xanomeline",1,"XANOMELINE",1,1,"704",704,1017,"1017",1017,77,"M",1,2,"Xanomeline High Dose","TRANSDERMAL",3,"WHITE",5,"NOT HISPANIC OR LATINO",2,"PATCH",3,"USA",235,"United States of America",170.18,63.05,10,13,11.97,159.12,21.7704823914883,2.83633333333333,30.7047794117647,38.2994608001766,150
"CDISCPILOT01","01-704-1017",0,0.5,0.5,0.5,0.5,54,81,"XAN",0.01,2,"N",0,NA,0.540730869988226,0.540730869988226,-0.61483359158801,0,"ug/ml","2013-10-06T00:30:00",0,0,4,"Pharmacokinetic concentration of Xanomeline",1,"XANOMELINE",1,1,"704",704,1017,"1017",1017,77,"M",1,2,"Xanomeline High Dose","TRANSDERMAL",3,"WHITE",5,"NOT HISPANIC OR LATINO",2,"PATCH",3,"USA",235,"United States of America",170.18,63.05,10,13,11.97,159.12,21.7704823914883,2.83633333333333,30.7047794117647,38.2994608001766,151
"CDISCPILOT01","01-704-1017",0,1,1,1,1,54,81,"XAN",0.01,2,"N",0,NA,0.930265091670862,0.930265091670862,-0.0722856886450093,0,"ug/ml","2013-10-06T01:00:00",0,0,5,"Pharmacokinetic concentration of Xanomeline",1,"XANOMELINE",1,1,"704",704,1017,"1017",1017,77,"M",1,2,"Xanomeline High Dose","TRANSDERMAL",3,"WHITE",5,"NOT HISPANIC OR LATINO",2,"PATCH",3,"USA",235,"United States of America",170.18,63.05,10,13,11.97,159.12,21.7704823914883,2.83633333333333,30.7047794117647,38.2994608001766,152
"CDISCPILOT01","01-704-1017",0,1.5,1.5,1.5,1.5,54,81,"XAN",0.01,2,"N",0,NA,1.21087956789857,1.21087956789857,0.191347011152108,0,"ug/ml","2013-10-06T01:30:00",0,0,6,"Pharmacokinetic concentration of Xanomeline",1,"XANOMELINE",1,1,"704",704,1017,"1017",1017,77,"M",1,2,"Xanomeline High Dose","TRANSDERMAL",3,"WHITE",5,"NOT HISPANIC OR LATINO",2,"PATCH",3,"USA",235,"United States of America",170.18,63.05,10,13,11.97,159.12,21.7704823914883,2.83633333333333,30.7047794117647,38.2994608001766,153
"CDISCPILOT01","01-704-1017",0,2,2,2,2,54,81,"XAN",0.01,2,"N",0,NA,1.41302993078171,1.41302993078171,0.345736285913795,0,"ug/ml","2013-10-06T02:00:00",0,0,7,"Pharmacokinetic concentration of Xanomeline",1,"XANOMELINE",1,1,"704",704,1017,"1017",1017,77,"M",1,2,"Xanomeline High Dose","TRANSDERMAL",3,"WHITE",5,"NOT HISPANIC OR LATINO",2,"PATCH",3,"USA",235,"United States of America",170.18,63.05,10,13,11.97,159.12,21.7704823914883,2.83633333333333,30.7047794117647,38.2994608001766,154
"CDISCPILOT01","01-704-1017",0,4,4,4,4,54,81,"XAN",0.01,2,"N",0,NA,1.79357769642505,1.79357769642505,0.584212338169823,0,"ug/ml","2013-10-06T04:00:00",0,0,8,"Pharmacokinetic concentration of Xanomeline",1,"XANOMELINE",1,1,"704",704,1017,"1017",1017,77,"M",1,2,"Xanomeline High Dose","TRANSDERMAL",3,"WHITE",5,"NOT HISPANIC OR LATINO",2,"PATCH",3,"USA",235,"United States of America",170.18,63.05,10,13,11.97,159.12,21.7704823914883,2.83633333333333,30.7047794117647,38.2994608001766,155
"CDISCPILOT01","01-704-1017",0,6,6,6,6,54,81,"XAN",0.01,2,"N",0,NA,1.89606427422601,1.89606427422601,0.639780303166473,0,"ug/ml","2013-10-06T06:00:00",0,0,9,"Pharmacokinetic concentration of Xanomeline",1,"XANOMELINE",1,1,"704",704,1017,"1017",1017,77,"M",1,2,"Xanomeline High Dose","TRANSDERMAL",3,"WHITE",5,"NOT HISPANIC OR LATINO",2,"PATCH",3,"USA",235,"United States of America",170.18,63.05,10,13,11.97,159.12,21.7704823914883,2.83633333333333,30.7047794117647,38.2994608001766,156
"CDISCPILOT01","01-704-1017",0,3,6,6,3,54,81,"XAN",0.01,3,"N",0,NA,28.9942050335687,28.9942050335687,3.36709598358985,0,"ug/ml","2013-10-06T06:00:00",0,0,10,"Pharmacokinetic concentration of Xanomeline",1,"XANOMELINE",1,1,"704",704,1017,"1017",1017,77,"M",1,2,"Xanomeline High Dose","TRANSDERMAL",3,"WHITE",5,"NOT HISPANIC OR LATINO",2,"PATCH",3,"USA",235,"United States of America",170.18,63.05,10,13,11.97,159.12,21.7704823914883,2.83633333333333,30.7047794117647,38.2994608001766,157
"CDISCPILOT01","01-704-1017",0,8,8,8,8,54,81,"XAN",0.01,2,"N",0,NA,1.92366527356861,1.92366527356861,0.654232362871553,0,"ug/ml","2013-10-06T08:00:00",0,0,11,"Pharmacokinetic concentration of Xanomeline",1,"XANOMELINE",1,1,"704",704,1017,"1017",1017,77,"M",1,2,"Xanomeline High Dose","TRANSDERMAL",3,"WHITE",5,"NOT HISPANIC OR LATINO",2,"PATCH",3,"USA",235,"United States of America",170.18,63.05,10,13,11.97,159.12,21.7704823914883,2.83633333333333,30.7047794117647,38.2994608001766,158
"CDISCPILOT01","01-704-1017",0,12,12,12,12,54,81,"XAN",0.01,2,"N",0,NA,0.618924316436025,0.618924316436025,-0.479772281242889,0,"ug/ml","2013-10-06T12:00:00",0,0,12,"Pharmacokinetic concentration of Xanomeline",1,"XANOMELINE",1,1,"704",704,1017,"1017",1017,77,"M",1,2,"Xanomeline High Dose","TRANSDERMAL",3,"WHITE",5,"NOT HISPANIC OR LATINO",2,"PATCH",3,"USA",235,"United States of America",170.18,63.05,10,13,11.97,159.12,21.7704823914883,2.83633333333333,30.7047794117647,38.2994608001766,159
"CDISCPILOT01","01-704-1017",0,9,12,12,9,54,81,"XAN",0.01,3,"N",0,NA,25.0585654488057,25.0585654488057,3.2212157031688,0,"ug/ml","2013-10-06T12:00:00",0,0,13,"Pharmacokinetic concentration of Xanomeline",1,"XANOMELINE",1,1,"704",704,1017,"1017",1017,77,"M",1,2,"Xanomeline High Dose","TRANSDERMAL",3,"WHITE",5,"NOT HISPANIC OR LATINO",2,"PATCH",3,"USA",235,"United States of America",170.18,63.05,10,13,11.97,159.12,21.7704823914883,2.83633333333333,30.7047794117647,38.2994608001766,160
"CDISCPILOT01","01-704-1017",0,16,16,16,16,54,81,"XAN",0.01,2,"N",0,NA,0.198086522367303,0.198086522367303,-1.61905136208324,0,"ug/ml","2013-10-06T16:00:00",0,0,14,"Pharmacokinetic concentration of Xanomeline",1,"XANOMELINE",1,1,"704",704,1017,"1017",1017,77,"M",1,2,"Xanomeline High Dose","TRANSDERMAL",3,"WHITE",5,"NOT HISPANIC OR LATINO",2,"PATCH",3,"USA",235,"United States of America",170.18,63.05,10,13,11.97,159.12,21.7704823914883,2.83633333333333,30.7047794117647,38.2994608001766,161
"CDISCPILOT01","01-704-1017",0,24,24,24,24,54,81,"XAN",0.01,2,"N",0,NA,0.0202903571351531,0.0202903571351531,-3.89760952376393,0,"ug/ml","2013-10-07T00:00:00",0,0,15,"Pharmacokinetic concentration of Xanomeline",1,"XANOMELINE",1,1,"704",704,1017,"1017",1017,77,"M",1,2,"Xanomeline High Dose","TRANSDERMAL",3,"WHITE",5,"NOT HISPANIC OR LATINO",2,"PATCH",3,"USA",235,"United States of America",170.18,63.05,10,13,11.97,159.12,21.7704823914883,2.83633333333333,30.7047794117647,38.2994608001766,162
"CDISCPILOT01","01-704-1017",0,18,24,24,18,54,81,"XAN",0.01,3,"N",0,NA,17.1872862792797,17.1872862792797,2.84416994068939,0,"ug/ml","2013-10-07T00:00:00",0,0,16,"Pharmacokinetic concentration of Xanomeline",1,"XANOMELINE",1,1,"704",704,1017,"1017",1017,77,"M",1,2,"Xanomeline High Dose","TRANSDERMAL",3,"WHITE",5,"NOT HISPANIC OR LATINO",2,"PATCH",3,"USA",235,"United States of America",170.18,63.05,10,13,11.97,159.12,21.7704823914883,2.83633333333333,30.7047794117647,38.2994608001766,163
"CDISCPILOT01","01-704-1017",1,24,24,0,0,54,81,"DOSE",NA,1,"N",0,54,NA,NA,NA,1,NA,"2013-10-07T00:00:00",1,1,17,"Xanomeline Patch Dose",2,"XANOMELINE",1,1,"704",704,1017,"1017",1017,77,"M",1,2,"Xanomeline High Dose","TRANSDERMAL",3,"WHITE",5,"NOT HISPANIC OR LATINO",2,"PATCH",3,"USA",235,"United States of America",170.18,63.05,10,13,11.97,159.12,21.7704823914883,2.83633333333333,30.7047794117647,38.2994608001766,164
"CDISCPILOT01","01-704-1017",0,36,36,12,12,54,81,"XAN",0.01,2,"Y",1,NA,NA,NA,NA,1,"ug/ml","2013-10-07T12:00:00",0,0,18,"Pharmacokinetic concentration of Xanomeline",1,"XANOMELINE",1,1,"704",704,1017,"1017",1017,77,"M",1,2,"Xanomeline High Dose","TRANSDERMAL",3,"WHITE",5,"NOT HISPANIC OR LATINO",2,"PATCH",3,"USA",235,"United States of America",170.18,63.05,10,13,11.97,159.12,21.7704823914883,2.83633333333333,30.7047794117647,38.2994608001766,165
"CDISCPILOT01","01-704-1017",0,48,48,24,24,54,81,"XAN",0.01,2,"Y",1,NA,NA,NA,NA,1,"ug/ml","2013-10-08T00:00:00",0,0,19,"Pharmacokinetic concentration of Xanomeline",1,"XANOMELINE",1,1,"704",704,1017,"1017",1017,77,"M",1,2,"Xanomeline High Dose","TRANSDERMAL",3,"WHITE",5,"NOT HISPANIC OR LATINO",2,"PATCH",3,"USA",235,"United States of America",170.18,63.05,10,13,11.97,159.12,21.7704823914883,2.83633333333333,30.7047794117647,38.2994608001766,166
"CDISCPILOT01","01-704-1017",0,37,48,24,13,54,81,"XAN",0.01,3,"N",0,NA,1.44472794022784,1.44472794022784,0.367921027179183,0,"ug/ml","2013-10-08T00:00:00",0,0,20,"Pharmacokinetic concentration of Xanomeline",1,"XANOMELINE",1,1,"704",704,1017,"1017",1017,77,"M",1,2,"Xanomeline High Dose","TRANSDERMAL",3,"WHITE",5,"NOT HISPANIC OR LATINO",2,"PATCH",3,"USA",235,"United States of America",170.18,63.05,10,13,11.97,159.12,21.7704823914883,2.83633333333333,30.7047794117647,38.2994608001766,167
"CDISCPILOT01","01-704-1017",1,48,48,0,0,54,81,"DOSE",NA,1,"N",0,54,NA,NA,NA,1,NA,"2013-10-08T00:00:00",1,1,21,"Xanomeline Patch Dose",2,"XANOMELINE",1,1,"704",704,1017,"1017",1017,77,"M",1,2,"Xanomeline High Dose","TRANSDERMAL",3,"WHITE",5,"NOT HISPANIC OR LATINO",2,"PATCH",3,"USA",235,"United States of America",170.18,63.05,10,13,11.97,159.12,21.7704823914883,2.83633333333333,30.7047794117647,38.2994608001766,168
"CDISCPILOT01","01-708-1019",0,0,-0.5,-0.5,0,54,54,"XAN",0.01,2,"Y",1,NA,0,0,NA,0,"ug/ml","2013-12-19T23:30:00",0,0,1,"Pharmacokinetic concentration of Xanomeline",1,"XANOMELINE",1,1,"708",708,1019,"1019",1019,68,"M",1,1,"Xanomeline Low Dose","TRANSDERMAL",3,"WHITE",5,"NOT HISPANIC OR LATINO",2,"PATCH",3,"USA",235,"United States of America",182.88,74.39,14,19,6.84,123.76,22.2424248860843,3.048,53.2318875242405,54.7614692088909,169
"CDISCPILOT01","01-708-1019",1,0,0,0,0,54,54,"DOSE",NA,1,"N",0,54,NA,NA,NA,1,NA,"2013-12-20T00:00:00",1,1,2,"Xanomeline Patch Dose",2,"XANOMELINE",1,1,"708",708,1019,"1019",1019,68,"M",1,1,"Xanomeline Low Dose","TRANSDERMAL",3,"WHITE",5,"NOT HISPANIC OR LATINO",2,"PATCH",3,"USA",235,"United States of America",182.88,74.39,14,19,6.84,123.76,22.2424248860843,3.048,53.2318875242405,54.7614692088909,170
"CDISCPILOT01","01-708-1019",0,0.08,0.0833333333333333,0.0833333333333333,0.08,54,54,"XAN",0.01,2,"N",0,NA,0.0986561339407148,0.0986561339407148,-2.3161148696253,0,"ug/ml","2013-12-20T00:05:00",0,0,3,"Pharmacokinetic concentration of Xanomeline",1,"XANOMELINE",1,1,"708",708,1019,"1019",1019,68,"M",1,1,"Xanomeline Low Dose","TRANSDERMAL",3,"WHITE",5,"NOT HISPANIC OR LATINO",2,"PATCH",3,"USA",235,"United States of America",182.88,74.39,14,19,6.84,123.76,22.2424248860843,3.048,53.2318875242405,54.7614692088909,171
"CDISCPILOT01","01-708-1019",0,0.5,0.5,0.5,0.5,54,54,"XAN",0.01,2,"N",0,NA,0.537648868131083,0.537648868131083,-0.620549593362953,0,"ug/ml","2013-12-20T00:30:00",0,0,4,"Pharmacokinetic concentration of Xanomeline",1,"XANOMELINE",1,1,"708",708,1019,"1019",1019,68,"M",1,1,"Xanomeline Low Dose","TRANSDERMAL",3,"WHITE",5,"NOT HISPANIC OR LATINO",2,"PATCH",3,"USA",235,"United States of America",182.88,74.39,14,19,6.84,123.76,22.2424248860843,3.048,53.2318875242405,54.7614692088909,172
"CDISCPILOT01","01-708-1019",0,1,1,1,1,54,54,"XAN",0.01,2,"N",0,NA,0.921400396528963,0.921400396528963,-0.0818605961255585,0,"ug/ml","2013-12-20T01:00:00",0,0,5,"Pharmacokinetic concentration of Xanomeline",1,"XANOMELINE",1,1,"708",708,1019,"1019",1019,68,"M",1,1,"Xanomeline Low Dose","TRANSDERMAL",3,"WHITE",5,"NOT HISPANIC OR LATINO",2,"PATCH",3,"USA",235,"United States of America",182.88,74.39,14,19,6.84,123.76,22.2424248860843,3.048,53.2318875242405,54.7614692088909,173
"CDISCPILOT01","01-708-1019",0,1.5,1.5,1.5,1.5,54,54,"XAN",0.01,2,"N",0,NA,1.19530636802225,1.19530636802225,0.178402527439056,0,"ug/ml","2013-12-20T01:30:00",0,0,6,"Pharmacokinetic concentration of Xanomeline",1,"XANOMELINE",1,1,"708",708,1019,"1019",1019,68,"M",1,1,"Xanomeline Low Dose","TRANSDERMAL",3,"WHITE",5,"NOT HISPANIC OR LATINO",2,"PATCH",3,"USA",235,"United States of America",182.88,74.39,14,19,6.84,123.76,22.2424248860843,3.048,53.2318875242405,54.7614692088909,174
"CDISCPILOT01","01-708-1019",0,2,2,2,2,54,54,"XAN",0.01,2,"N",0,NA,1.39080912349764,1.39080912349764,0.329885681021945,0,"ug/ml","2013-12-20T02:00:00",0,0,7,"Pharmacokinetic concentration of Xanomeline",1,"XANOMELINE",1,1,"708",708,1019,"1019",1019,68,"M",1,1,"Xanomeline Low Dose","TRANSDERMAL",3,"WHITE",5,"NOT HISPANIC OR LATINO",2,"PATCH",3,"USA",235,"United States of America",182.88,74.39,14,19,6.84,123.76,22.2424248860843,3.048,53.2318875242405,54.7614692088909,175
"CDISCPILOT01","01-708-1019",0,4,4,4,4,54,54,"XAN",0.01,2,"N",0,NA,1.75178074494162,1.75178074494162,0.56063283910157,0,"ug/ml","2013-12-20T04:00:00",0,0,8,"Pharmacokinetic concentration of Xanomeline",1,"XANOMELINE",1,1,"708",708,1019,"1019",1019,68,"M",1,1,"Xanomeline Low Dose","TRANSDERMAL",3,"WHITE",5,"NOT HISPANIC OR LATINO",2,"PATCH",3,"USA",235,"United States of America",182.88,74.39,14,19,6.84,123.76,22.2424248860843,3.048,53.2318875242405,54.7614692088909,176
"CDISCPILOT01","01-708-1019",0,6,6,6,6,54,54,"XAN",0.01,2,"N",0,NA,1.8454675847002,1.8454675847002,0.612732678825502,0,"ug/ml","2013-12-20T06:00:00",0,0,9,"Pharmacokinetic concentration of Xanomeline",1,"XANOMELINE",1,1,"708",708,1019,"1019",1019,68,"M",1,1,"Xanomeline Low Dose","TRANSDERMAL",3,"WHITE",5,"NOT HISPANIC OR LATINO",2,"PATCH",3,"USA",235,"United States of America",182.88,74.39,14,19,6.84,123.76,22.2424248860843,3.048,53.2318875242405,54.7614692088909,177
"CDISCPILOT01","01-708-1019",0,3,6,6,3,54,54,"XAN",0.01,3,"N",0,NA,27.9809567315058,27.9809567315058,3.33152416205896,0,"ug/ml","2013-12-20T06:00:00",0,0,10,"Pharmacokinetic concentration of Xanomeline",1,"XANOMELINE",1,1,"708",708,1019,"1019",1019,68,"M",1,1,"Xanomeline Low Dose","TRANSDERMAL",3,"WHITE",5,"NOT HISPANIC OR LATINO",2,"PATCH",3,"USA",235,"United States of America",182.88,74.39,14,19,6.84,123.76,22.2424248860843,3.048,53.2318875242405,54.7614692088909,178
"CDISCPILOT01","01-708-1019",0,8,8,8,8,54,54,"XAN",0.01,2,"N",0,NA,1.86978313590292,1.86978313590292,0.62582245403605,0,"ug/ml","2013-12-20T08:00:00",0,0,11,"Pharmacokinetic concentration of Xanomeline",1,"XANOMELINE",1,1,"708",708,1019,"1019",1019,68,"M",1,1,"Xanomeline Low Dose","TRANSDERMAL",3,"WHITE",5,"NOT HISPANIC OR LATINO",2,"PATCH",3,"USA",235,"United States of America",182.88,74.39,14,19,6.84,123.76,22.2424248860843,3.048,53.2318875242405,54.7614692088909,179
"CDISCPILOT01","01-708-1019",0,12,12,12,12,54,54,"XAN",0.01,2,"N",0,NA,0.582161410904313,0.582161410904313,-0.541007531378301,0,"ug/ml","2013-12-20T12:00:00",0,0,12,"Pharmacokinetic concentration of Xanomeline",1,"XANOMELINE",1,1,"708",708,1019,"1019",1019,68,"M",1,1,"Xanomeline Low Dose","TRANSDERMAL",3,"WHITE",5,"NOT HISPANIC OR LATINO",2,"PATCH",3,"USA",235,"United States of America",182.88,74.39,14,19,6.84,123.76,22.2424248860843,3.048,53.2318875242405,54.7614692088909,180
"CDISCPILOT01","01-708-1019",0,9,12,12,9,54,54,"XAN",0.01,3,"N",0,NA,23.9344318843466,23.9344318843466,3.17531808679284,0,"ug/ml","2013-12-20T12:00:00",0,0,13,"Pharmacokinetic concentration of Xanomeline",1,"XANOMELINE",1,1,"708",708,1019,"1019",1019,68,"M",1,1,"Xanomeline Low Dose","TRANSDERMAL",3,"WHITE",5,"NOT HISPANIC OR LATINO",2,"PATCH",3,"USA",235,"United States of America",182.88,74.39,14,19,6.84,123.76,22.2424248860843,3.048,53.2318875242405,54.7614692088909,181
"CDISCPILOT01","01-708-1019",0,16,16,16,16,54,54,"XAN",0.01,2,"N",0,NA,0.180434869521436,0.180434869521436,-1.71238540000159,0,"ug/ml","2013-12-20T16:00:00",0,0,14,"Pharmacokinetic concentration of Xanomeline",1,"XANOMELINE",1,1,"708",708,1019,"1019",1019,68,"M",1,1,"Xanomeline Low Dose","TRANSDERMAL",3,"WHITE",5,"NOT HISPANIC OR LATINO",2,"PATCH",3,"USA",235,"United States of America",182.88,74.39,14,19,6.84,123.76,22.2424248860843,3.048,53.2318875242405,54.7614692088909,182
"CDISCPILOT01","01-708-1019",0,24,24,24,24,54,54,"XAN",0.01,2,"N",0,NA,0.0173330336741481,0.0173330336741481,-4.05514113724818,0,"ug/ml","2013-12-21T00:00:00",0,0,15,"Pharmacokinetic concentration of Xanomeline",1,"XANOMELINE",1,1,"708",708,1019,"1019",1019,68,"M",1,1,"Xanomeline Low Dose","TRANSDERMAL",3,"WHITE",5,"NOT HISPANIC OR LATINO",2,"PATCH",3,"USA",235,"United States of America",182.88,74.39,14,19,6.84,123.76,22.2424248860843,3.048,53.2318875242405,54.7614692088909,183
"CDISCPILOT01","01-708-1019",0,18,24,24,18,54,54,"XAN",0.01,3,"N",0,NA,15.8413821900283,15.8413821900283,2.76262564205088,0,"ug/ml","2013-12-21T00:00:00",0,0,16,"Pharmacokinetic concentration of Xanomeline",1,"XANOMELINE",1,1,"708",708,1019,"1019",1019,68,"M",1,1,"Xanomeline Low Dose","TRANSDERMAL",3,"WHITE",5,"NOT HISPANIC OR LATINO",2,"PATCH",3,"USA",235,"United States of America",182.88,74.39,14,19,6.84,123.76,22.2424248860843,3.048,53.2318875242405,54.7614692088909,184
"CDISCPILOT01","01-708-1019",1,24,24,0,0,54,54,"DOSE",NA,1,"N",0,54,NA,NA,NA,1,NA,"2013-12-21T00:00:00",1,1,17,"Xanomeline Patch Dose",2,"XANOMELINE",1,1,"708",708,1019,"1019",1019,68,"M",1,1,"Xanomeline Low Dose","TRANSDERMAL",3,"WHITE",5,"NOT HISPANIC OR LATINO",2,"PATCH",3,"USA",235,"United States of America",182.88,74.39,14,19,6.84,123.76,22.2424248860843,3.048,53.2318875242405,54.7614692088909,185
"CDISCPILOT01","01-708-1019",0,36,36,12,12,54,54,"XAN",0.01,2,"Y",1,NA,NA,NA,NA,1,"ug/ml","2013-12-21T12:00:00",0,0,18,"Pharmacokinetic concentration of Xanomeline",1,"XANOMELINE",1,1,"708",708,1019,"1019",1019,68,"M",1,1,"Xanomeline Low Dose","TRANSDERMAL",3,"WHITE",5,"NOT HISPANIC OR LATINO",2,"PATCH",3,"USA",235,"United States of America",182.88,74.39,14,19,6.84,123.76,22.2424248860843,3.048,53.2318875242405,54.7614692088909,186
"CDISCPILOT01","01-708-1019",0,48,48,24,24,54,54,"XAN",0.01,2,"Y",1,NA,NA,NA,NA,1,"ug/ml","2013-12-22T00:00:00",0,0,19,"Pharmacokinetic concentration of Xanomeline",1,"XANOMELINE",1,1,"708",708,1019,"1019",1019,68,"M",1,1,"Xanomeline Low Dose","TRANSDERMAL",3,"WHITE",5,"NOT HISPANIC OR LATINO",2,"PATCH",3,"USA",235,"United States of America",182.88,74.39,14,19,6.84,123.76,22.2424248860843,3.048,53.2318875242405,54.7614692088909,187
"CDISCPILOT01","01-708-1019",0,37,48,24,13,54,54,"XAN",0.01,3,"Y",1,NA,NA,NA,NA,1,"ug/ml","2013-12-22T00:00:00",0,0,20,"Pharmacokinetic concentration of Xanomeline",1,"XANOMELINE",1,1,"708",708,1019,"1019",1019,68,"M",1,1,"Xanomeline Low Dose","TRANSDERMAL",3,"WHITE",5,"NOT HISPANIC OR LATINO",2,"PATCH",3,"USA",235,"United States of America",182.88,74.39,14,19,6.84,123.76,22.2424248860843,3.048,53.2318875242405,54.7614692088909,188
"CDISCPILOT01","01-708-1019",1,48,48,0,0,54,54,"DOSE",NA,1,"N",0,54,NA,NA,NA,1,NA,"2013-12-22T00:00:00",1,1,21,"Xanomeline Patch Dose",2,"XANOMELINE",1,1,"708",708,1019,"1019",1019,68,"M",1,1,"Xanomeline Low Dose","TRANSDERMAL",3,"WHITE",5,"NOT HISPANIC OR LATINO",2,"PATCH",3,"USA",235,"United States of America",182.88,74.39,14,19,6.84,123.76,22.2424248860843,3.048,53.2318875242405,54.7614692088909,189
"CDISCPILOT01","01-709-1020",0,0,-0.5,-0.5,0,54,54,"XAN",0.01,2,"Y",1,NA,0,0,NA,0,"ug/ml","2012-11-30T23:30:00",0,0,1,"Pharmacokinetic concentration of Xanomeline",1,"XANOMELINE",1,1,"709",709,1020,"1020",1020,72,"F",2,1,"Xanomeline Low Dose","TRANSDERMAL",3,"WHITE",5,"NOT HISPANIC OR LATINO",2,"PATCH",3,"USA",235,"United States of America",144.78,54.43,10,13,11.97,70.72,25.9669648302054,2.413,54.43,78.2571213713992,190
"CDISCPILOT01","01-709-1020",1,0,0,0,0,54,54,"DOSE",NA,1,"N",0,54,NA,NA,NA,1,NA,"2012-12-01T00:00:00",1,1,2,"Xanomeline Patch Dose",2,"XANOMELINE",1,1,"709",709,1020,"1020",1020,72,"F",2,1,"Xanomeline Low Dose","TRANSDERMAL",3,"WHITE",5,"NOT HISPANIC OR LATINO",2,"PATCH",3,"USA",235,"United States of America",144.78,54.43,10,13,11.97,70.72,25.9669648302054,2.413,54.43,78.2571213713992,191
"CDISCPILOT01","01-709-1020",0,0.08,0.0833333333333333,0.0833333333333333,0.08,54,54,"XAN",0.01,2,"N",0,NA,0.106307123750099,0.106307123750099,-2.24142298035664,0,"ug/ml","2012-12-01T00:05:00",0,0,3,"Pharmacokinetic concentration of Xanomeline",1,"XANOMELINE",1,1,"709",709,1020,"1020",1020,72,"F",2,1,"Xanomeline Low Dose","TRANSDERMAL",3,"WHITE",5,"NOT HISPANIC OR LATINO",2,"PATCH",3,"USA",235,"United States of America",144.78,54.43,10,13,11.97,70.72,25.9669648302054,2.413,54.43,78.2571213713992,192
"CDISCPILOT01","01-709-1020",0,0.5,0.5,0.5,0.5,54,54,"XAN",0.01,2,"N",0,NA,0.571421869953196,0.571421869953196,-0.559627515586098,0,"ug/ml","2012-12-01T00:30:00",0,0,4,"Pharmacokinetic concentration of Xanomeline",1,"XANOMELINE",1,1,"709",709,1020,"1020",1020,72,"F",2,1,"Xanomeline Low Dose","TRANSDERMAL",3,"WHITE",5,"NOT HISPANIC OR LATINO",2,"PATCH",3,"USA",235,"United States of America",144.78,54.43,10,13,11.97,70.72,25.9669648302054,2.413,54.43,78.2571213713992,193
"CDISCPILOT01","01-709-1020",0,1,1,1,1,54,54,"XAN",0.01,2,"N",0,NA,0.965174589171952,0.965174589171952,-0.0354462725857459,0,"ug/ml","2012-12-01T01:00:00",0,0,5,"Pharmacokinetic concentration of Xanomeline",1,"XANOMELINE",1,1,"709",709,1020,"1020",1020,72,"F",2,1,"Xanomeline Low Dose","TRANSDERMAL",3,"WHITE",5,"NOT HISPANIC OR LATINO",2,"PATCH",3,"USA",235,"United States of America",144.78,54.43,10,13,11.97,70.72,25.9669648302054,2.413,54.43,78.2571213713992,194
"CDISCPILOT01","01-709-1020",0,1.5,1.5,1.5,1.5,54,54,"XAN",0.01,2,"N",0,NA,1.23649987797279,1.23649987797279,0.212284709291733,0,"ug/ml","2012-12-01T01:30:00",0,0,6,"Pharmacokinetic concentration of Xanomeline",1,"XANOMELINE",1,1,"709",709,1020,"1020",1020,72,"F",2,1,"Xanomeline Low Dose","TRANSDERMAL",3,"WHITE",5,"NOT HISPANIC OR LATINO",2,"PATCH",3,"USA",235,"United States of America",144.78,54.43,10,13,11.97,70.72,25.9669648302054,2.413,54.43,78.2571213713992,195
"CDISCPILOT01","01-709-1020",0,2,2,2,2,54,54,"XAN",0.01,2,"N",0,NA,1.42346344355507,1.42346344355507,0.353092946728342,0,"ug/ml","2012-12-01T02:00:00",0,0,7,"Pharmacokinetic concentration of Xanomeline",1,"XANOMELINE",1,1,"709",709,1020,"1020",1020,72,"F",2,1,"Xanomeline Low Dose","TRANSDERMAL",3,"WHITE",5,"NOT HISPANIC OR LATINO",2,"PATCH",3,"USA",235,"United States of America",144.78,54.43,10,13,11.97,70.72,25.9669648302054,2.413,54.43,78.2571213713992,196
"CDISCPILOT01","01-709-1020",0,4,4,4,4,54,54,"XAN",0.01,2,"N",0,NA,1.74439553781825,1.74439553781825,0.556408098979447,0,"ug/ml","2012-12-01T04:00:00",0,0,8,"Pharmacokinetic concentration of Xanomeline",1,"XANOMELINE",1,1,"709",709,1020,"1020",1020,72,"F",2,1,"Xanomeline Low Dose","TRANSDERMAL",3,"WHITE",5,"NOT HISPANIC OR LATINO",2,"PATCH",3,"USA",235,"United States of America",144.78,54.43,10,13,11.97,70.72,25.9669648302054,2.413,54.43,78.2571213713992,197
"CDISCPILOT01","01-709-1020",0,6,6,6,6,54,54,"XAN",0.01,2,"N",0,NA,1.81675244279848,1.81675244279848,0.597050535111741,0,"ug/ml","2012-12-01T06:00:00",0,0,9,"Pharmacokinetic concentration of Xanomeline",1,"XANOMELINE",1,1,"709",709,1020,"1020",1020,72,"F",2,1,"Xanomeline Low Dose","TRANSDERMAL",3,"WHITE",5,"NOT HISPANIC OR LATINO",2,"PATCH",3,"USA",235,"United States of America",144.78,54.43,10,13,11.97,70.72,25.9669648302054,2.413,54.43,78.2571213713992,198
"CDISCPILOT01","01-709-1020",0,3,6,6,3,54,54,"XAN",0.01,3,"N",0,NA,24.5318546370238,24.5318546370238,3.19997246230283,0,"ug/ml","2012-12-01T06:00:00",0,0,10,"Pharmacokinetic concentration of Xanomeline",1,"XANOMELINE",1,1,"709",709,1020,"1020",1020,72,"F",2,1,"Xanomeline Low Dose","TRANSDERMAL",3,"WHITE",5,"NOT HISPANIC OR LATINO",2,"PATCH",3,"USA",235,"United States of America",144.78,54.43,10,13,11.97,70.72,25.9669648302054,2.413,54.43,78.2571213713992,199
"CDISCPILOT01","01-709-1020",0,8,8,8,8,54,54,"XAN",0.01,2,"N",0,NA,1.83306593026797,1.83306593026797,0.605989936714792,0,"ug/ml","2012-12-01T08:00:00",0,0,11,"Pharmacokinetic concentration of Xanomeline",1,"XANOMELINE",1,1,"709",709,1020,"1020",1020,72,"F",2,1,"Xanomeline Low Dose","TRANSDERMAL",3,"WHITE",5,"NOT HISPANIC OR LATINO",2,"PATCH",3,"USA",235,"United States of America",144.78,54.43,10,13,11.97,70.72,25.9669648302054,2.413,54.43,78.2571213713992,200
"CDISCPILOT01","01-709-1020",0,12,12,12,12,54,54,"XAN",0.01,2,"N",0,NA,0.504061949130831,0.504061949130831,-0.685056103522065,0,"ug/ml","2012-12-01T12:00:00",0,0,12,"Pharmacokinetic concentration of Xanomeline",1,"XANOMELINE",1,1,"709",709,1020,"1020",1020,72,"F",2,1,"Xanomeline Low Dose","TRANSDERMAL",3,"WHITE",5,"NOT HISPANIC OR LATINO",2,"PATCH",3,"USA",235,"United States of America",144.78,54.43,10,13,11.97,70.72,25.9669648302054,2.413,54.43,78.2571213713992,201
"CDISCPILOT01","01-709-1020",0,9,12,12,9,54,54,"XAN",0.01,3,"N",0,NA,20.062998629092,20.062998629092,2.9988772543679,0,"ug/ml","2012-12-01T12:00:00",0,0,13,"Pharmacokinetic concentration of Xanomeline",1,"XANOMELINE",1,1,"709",709,1020,"1020",1020,72,"F",2,1,"Xanomeline Low Dose","TRANSDERMAL",3,"WHITE",5,"NOT HISPANIC OR LATINO",2,"PATCH",3,"USA",235,"United States of America",144.78,54.43,10,13,11.97,70.72,25.9669648302054,2.413,54.43,78.2571213713992,202
"CDISCPILOT01","01-709-1020",0,16,16,16,16,54,54,"XAN",0.01,2,"N",0,NA,0.138250318078411,0.138250318078411,-1.97868933783434,0,"ug/ml","2012-12-01T16:00:00",0,0,14,"Pharmacokinetic concentration of Xanomeline",1,"XANOMELINE",1,1,"709",709,1020,"1020",1020,72,"F",2,1,"Xanomeline Low Dose","TRANSDERMAL",3,"WHITE",5,"NOT HISPANIC OR LATINO",2,"PATCH",3,"USA",235,"United States of America",144.78,54.43,10,13,11.97,70.72,25.9669648302054,2.413,54.43,78.2571213713992,203
"CDISCPILOT01","01-709-1020",0,24,24,24,24,54,54,"XAN",0.01,2,"N",0,NA,0.0103999341305182,0.0103999341305182,-4.56595580645889,0,"ug/ml","2012-12-02T00:00:00",0,0,15,"Pharmacokinetic concentration of Xanomeline",1,"XANOMELINE",1,1,"709",709,1020,"1020",1020,72,"F",2,1,"Xanomeline Low Dose","TRANSDERMAL",3,"WHITE",5,"NOT HISPANIC OR LATINO",2,"PATCH",3,"USA",235,"United States of America",144.78,54.43,10,13,11.97,70.72,25.9669648302054,2.413,54.43,78.2571213713992,204
"CDISCPILOT01","01-709-1020",0,18,24,24,18,54,54,"XAN",0.01,3,"N",0,NA,11.1252866132285,11.1252866132285,2.40922059070728,0,"ug/ml","2012-12-02T00:00:00",0,0,16,"Pharmacokinetic concentration of Xanomeline",1,"XANOMELINE",1,1,"709",709,1020,"1020",1020,72,"F",2,1,"Xanomeline Low Dose","TRANSDERMAL",3,"WHITE",5,"NOT HISPANIC OR LATINO",2,"PATCH",3,"USA",235,"United States of America",144.78,54.43,10,13,11.97,70.72,25.9669648302054,2.413,54.43,78.2571213713992,205
"CDISCPILOT01","01-709-1020",1,24,24,0,0,54,54,"DOSE",NA,1,"N",0,54,NA,NA,NA,1,NA,"2012-12-02T00:00:00",1,1,17,"Xanomeline Patch Dose",2,"XANOMELINE",1,1,"709",709,1020,"1020",1020,72,"F",2,1,"Xanomeline Low Dose","TRANSDERMAL",3,"WHITE",5,"NOT HISPANIC OR LATINO",2,"PATCH",3,"USA",235,"United States of America",144.78,54.43,10,13,11.97,70.72,25.9669648302054,2.413,54.43,78.2571213713992,206
"CDISCPILOT01","01-709-1020",0,36,36,12,12,54,54,"XAN",0.01,2,"Y",1,NA,NA,NA,NA,1,"ug/ml","2012-12-02T12:00:00",0,0,18,"Pharmacokinetic concentration of Xanomeline",1,"XANOMELINE",1,1,"709",709,1020,"1020",1020,72,"F",2,1,"Xanomeline Low Dose","TRANSDERMAL",3,"WHITE",5,"NOT HISPANIC OR LATINO",2,"PATCH",3,"USA",235,"United States of America",144.78,54.43,10,13,11.97,70.72,25.9669648302054,2.413,54.43,78.2571213713992,207
"CDISCPILOT01","01-709-1020",0,48,48,24,24,54,54,"XAN",0.01,2,"Y",1,NA,NA,NA,NA,1,"ug/ml","2012-12-03T00:00:00",0,0,19,"Pharmacokinetic concentration of Xanomeline",1,"XANOMELINE",1,1,"709",709,1020,"1020",1020,72,"F",2,1,"Xanomeline Low Dose","TRANSDERMAL",3,"WHITE",5,"NOT HISPANIC OR LATINO",2,"PATCH",3,"USA",235,"United States of America",144.78,54.43,10,13,11.97,70.72,25.9669648302054,2.413,54.43,78.2571213713992,208
"CDISCPILOT01","01-709-1020",0,37,48,24,13,54,54,"XAN",0.01,3,"Y",1,NA,NA,NA,NA,1,"ug/ml","2012-12-03T00:00:00",0,0,20,"Pharmacokinetic concentration of Xanomeline",1,"XANOMELINE",1,1,"709",709,1020,"1020",1020,72,"F",2,1,"Xanomeline Low Dose","TRANSDERMAL",3,"WHITE",5,"NOT HISPANIC OR LATINO",2,"PATCH",3,"USA",235,"United States of America",144.78,54.43,10,13,11.97,70.72,25.9669648302054,2.413,54.43,78.2571213713992,209
"CDISCPILOT01","01-709-1020",1,48,48,0,0,54,54,"DOSE",NA,1,"N",0,54,NA,NA,NA,1,NA,"2012-12-03T00:00:00",1,1,21,"Xanomeline Patch Dose",2,"XANOMELINE",1,1,"709",709,1020,"1020",1020,72,"F",2,1,"Xanomeline Low Dose","TRANSDERMAL",3,"WHITE",5,"NOT HISPANIC OR LATINO",2,"PATCH",3,"USA",235,"United States of America",144.78,54.43,10,13,11.97,70.72,25.9669648302054,2.413,54.43,78.2571213713992,210
"CDISCPILOT01","01-710-1021",0,0,-0.5,-0.5,0,54,81,"XAN",0.01,2,"Y",1,NA,0,0,NA,0,"ug/ml","2013-09-26T23:30:00",0,0,1,"Pharmacokinetic concentration of Xanomeline",1,"XANOMELINE",1,1,"710",710,1021,"1021",1021,79,"M",1,2,"Xanomeline High Dose","TRANSDERMAL",3,"BLACK OR AFRICAN AMERICAN",3,"NOT HISPANIC OR LATINO",2,"PATCH",3,"USA",235,"United States of America",162.56,56.25,11,16,8.55,123.76,21.2860533142941,2.70933333333333,34.1017897543633,51.1403867328481,211
"CDISCPILOT01","01-710-1021",1,0,0,0,0,54,81,"DOSE",NA,1,"N",0,54,NA,NA,NA,1,NA,"2013-09-27T00:00:00",1,1,2,"Xanomeline Patch Dose",2,"XANOMELINE",1,1,"710",710,1021,"1021",1021,79,"M",1,2,"Xanomeline High Dose","TRANSDERMAL",3,"BLACK OR AFRICAN AMERICAN",3,"NOT HISPANIC OR LATINO",2,"PATCH",3,"USA",235,"United States of America",162.56,56.25,11,16,8.55,123.76,21.2860533142941,2.70933333333333,34.1017897543633,51.1403867328481,212
"CDISCPILOT01","01-710-1021",0,0.08,0.0833333333333333,0.0833333333333333,0.08,54,81,"XAN",0.01,2,"N",0,NA,0.100284411979735,0.100284411979735,-2.29974501005302,0,"ug/ml","2013-09-27T00:05:00",0,0,3,"Pharmacokinetic concentration of Xanomeline",1,"XANOMELINE",1,1,"710",710,1021,"1021",1021,79,"M",1,2,"Xanomeline High Dose","TRANSDERMAL",3,"BLACK OR AFRICAN AMERICAN",3,"NOT HISPANIC OR LATINO",2,"PATCH",3,"USA",235,"United States of America",162.56,56.25,11,16,8.55,123.76,21.2860533142941,2.70933333333333,34.1017897543633,51.1403867328481,213
"CDISCPILOT01","01-710-1021",0,0.5,0.5,0.5,0.5,54,81,"XAN",0.01,2,"N",0,NA,0.540384692744189,0.540384692744189,-0.615473999085231,0,"ug/ml","2013-09-27T00:30:00",0,0,4,"Pharmacokinetic concentration of Xanomeline",1,"XANOMELINE",1,1,"710",710,1021,"1021",1021,79,"M",1,2,"Xanomeline High Dose","TRANSDERMAL",3,"BLACK OR AFRICAN AMERICAN",3,"NOT HISPANIC OR LATINO",2,"PATCH",3,"USA",235,"United States of America",162.56,56.25,11,16,8.55,123.76,21.2860533142941,2.70933333333333,34.1017897543633,51.1403867328481,214
"CDISCPILOT01","01-710-1021",0,1,1,1,1,54,81,"XAN",0.01,2,"N",0,NA,0.915121051092381,0.915121051092381,-0.0886989261811705,0,"ug/ml","2013-09-27T01:00:00",0,0,5,"Pharmacokinetic concentration of Xanomeline",1,"XANOMELINE",1,1,"710",710,1021,"1021",1021,79,"M",1,2,"Xanomeline High Dose","TRANSDERMAL",3,"BLACK OR AFRICAN AMERICAN",3,"NOT HISPANIC OR LATINO",2,"PATCH",3,"USA",235,"United States of America",162.56,56.25,11,16,8.55,123.76,21.2860533142941,2.70933333333333,34.1017897543633,51.1403867328481,215
"CDISCPILOT01","01-710-1021",0,1.5,1.5,1.5,1.5,54,81,"XAN",0.01,2,"N",0,NA,1.17498655089946,1.17498655089946,0.161256701487604,0,"ug/ml","2013-09-27T01:30:00",0,0,6,"Pharmacokinetic concentration of Xanomeline",1,"XANOMELINE",1,1,"710",710,1021,"1021",1021,79,"M",1,2,"Xanomeline High Dose","TRANSDERMAL",3,"BLACK OR AFRICAN AMERICAN",3,"NOT HISPANIC OR LATINO",2,"PATCH",3,"USA",235,"United States of America",162.56,56.25,11,16,8.55,123.76,21.2860533142941,2.70933333333333,34.1017897543633,51.1403867328481,216
"CDISCPILOT01","01-710-1021",0,2,2,2,2,54,81,"XAN",0.01,2,"N",0,NA,1.35519345232651,1.35519345232651,0.303944213385762,0,"ug/ml","2013-09-27T02:00:00",0,0,7,"Pharmacokinetic concentration of Xanomeline",1,"XANOMELINE",1,1,"710",710,1021,"1021",1021,79,"M",1,2,"Xanomeline High Dose","TRANSDERMAL",3,"BLACK OR AFRICAN AMERICAN",3,"NOT HISPANIC OR LATINO",2,"PATCH",3,"USA",235,"United States of America",162.56,56.25,11,16,8.55,123.76,21.2860533142941,2.70933333333333,34.1017897543633,51.1403867328481,217
"CDISCPILOT01","01-710-1021",0,4,4,4,4,54,81,"XAN",0.01,2,"N",0,NA,1.66858874512967,1.66858874512967,0.511978206365205,0,"ug/ml","2013-09-27T04:00:00",0,0,8,"Pharmacokinetic concentration of Xanomeline",1,"XANOMELINE",1,1,"710",710,1021,"1021",1021,79,"M",1,2,"Xanomeline High Dose","TRANSDERMAL",3,"BLACK OR AFRICAN AMERICAN",3,"NOT HISPANIC OR LATINO",2,"PATCH",3,"USA",235,"United States of America",162.56,56.25,11,16,8.55,123.76,21.2860533142941,2.70933333333333,34.1017897543633,51.1403867328481,218
"CDISCPILOT01","01-710-1021",0,6,6,6,6,54,81,"XAN",0.01,2,"N",0,NA,1.7410629807324,1.7410629807324,0.554495835164718,0,"ug/ml","2013-09-27T06:00:00",0,0,9,"Pharmacokinetic concentration of Xanomeline",1,"XANOMELINE",1,1,"710",710,1021,"1021",1021,79,"M",1,2,"Xanomeline High Dose","TRANSDERMAL",3,"BLACK OR AFRICAN AMERICAN",3,"NOT HISPANIC OR LATINO",2,"PATCH",3,"USA",235,"United States of America",162.56,56.25,11,16,8.55,123.76,21.2860533142941,2.70933333333333,34.1017897543633,51.1403867328481,219
"CDISCPILOT01","01-710-1021",0,3,6,6,3,54,81,"XAN",0.01,3,"N",0,NA,25.1107747801128,25.1107747801128,3.22329702813405,0,"ug/ml","2013-09-27T06:00:00",0,0,10,"Pharmacokinetic concentration of Xanomeline",1,"XANOMELINE",1,1,"710",710,1021,"1021",1021,79,"M",1,2,"Xanomeline High Dose","TRANSDERMAL",3,"BLACK OR AFRICAN AMERICAN",3,"NOT HISPANIC OR LATINO",2,"PATCH",3,"USA",235,"United States of America",162.56,56.25,11,16,8.55,123.76,21.2860533142941,2.70933333333333,34.1017897543633,51.1403867328481,220
"CDISCPILOT01","01-710-1021",0,8,8,8,8,54,81,"XAN",0.01,2,"N",0,NA,1.75782301174377,1.75782301174377,0.564076118281155,0,"ug/ml","2013-09-27T08:00:00",0,0,11,"Pharmacokinetic concentration of Xanomeline",1,"XANOMELINE",1,1,"710",710,1021,"1021",1021,79,"M",1,2,"Xanomeline High Dose","TRANSDERMAL",3,"BLACK OR AFRICAN AMERICAN",3,"NOT HISPANIC OR LATINO",2,"PATCH",3,"USA",235,"United States of America",162.56,56.25,11,16,8.55,123.76,21.2860533142941,2.70933333333333,34.1017897543633,51.1403867328481,221
"CDISCPILOT01","01-710-1021",0,12,12,12,12,54,81,"XAN",0.01,2,"N",0,NA,0.494282375749767,0.494282375749767,-0.704648314271968,0,"ug/ml","2013-09-27T12:00:00",0,0,12,"Pharmacokinetic concentration of Xanomeline",1,"XANOMELINE",1,1,"710",710,1021,"1021",1021,79,"M",1,2,"Xanomeline High Dose","TRANSDERMAL",3,"BLACK OR AFRICAN AMERICAN",3,"NOT HISPANIC OR LATINO",2,"PATCH",3,"USA",235,"United States of America",162.56,56.25,11,16,8.55,123.76,21.2860533142941,2.70933333333333,34.1017897543633,51.1403867328481,222
"CDISCPILOT01","01-710-1021",0,9,12,12,9,54,81,"XAN",0.01,3,"N",0,NA,20.7180722331176,20.7180722331176,3.03100637412069,0,"ug/ml","2013-09-27T12:00:00",0,0,13,"Pharmacokinetic concentration of Xanomeline",1,"XANOMELINE",1,1,"710",710,1021,"1021",1021,79,"M",1,2,"Xanomeline High Dose","TRANSDERMAL",3,"BLACK OR AFRICAN AMERICAN",3,"NOT HISPANIC OR LATINO",2,"PATCH",3,"USA",235,"United States of America",162.56,56.25,11,16,8.55,123.76,21.2860533142941,2.70933333333333,34.1017897543633,51.1403867328481,223
"CDISCPILOT01","01-710-1021",0,16,16,16,16,54,81,"XAN",0.01,2,"N",0,NA,0.138589793401533,0.138589793401533,-1.97623683561952,0,"ug/ml","2013-09-27T16:00:00",0,0,14,"Pharmacokinetic concentration of Xanomeline",1,"XANOMELINE",1,1,"710",710,1021,"1021",1021,79,"M",1,2,"Xanomeline High Dose","TRANSDERMAL",3,"BLACK OR AFRICAN AMERICAN",3,"NOT HISPANIC OR LATINO",2,"PATCH",3,"USA",235,"United States of America",162.56,56.25,11,16,8.55,123.76,21.2860533142941,2.70933333333333,34.1017897543633,51.1403867328481,224
"CDISCPILOT01","01-710-1021",0,24,24,24,24,54,81,"XAN",0.01,2,"N",0,NA,0.0108954078322246,0.0108954078322246,-4.51941387831464,0,"ug/ml","2013-09-28T00:00:00",0,0,15,"Pharmacokinetic concentration of Xanomeline",1,"XANOMELINE",1,1,"710",710,1021,"1021",1021,79,"M",1,2,"Xanomeline High Dose","TRANSDERMAL",3,"BLACK OR AFRICAN AMERICAN",3,"NOT HISPANIC OR LATINO",2,"PATCH",3,"USA",235,"United States of America",162.56,56.25,11,16,8.55,123.76,21.2860533142941,2.70933333333333,34.1017897543633,51.1403867328481,225
"CDISCPILOT01","01-710-1021",0,18,24,24,18,54,81,"XAN",0.01,3,"N",0,NA,11.9326671391274,11.9326671391274,2.47927977685009,0,"ug/ml","2013-09-28T00:00:00",0,0,16,"Pharmacokinetic concentration of Xanomeline",1,"XANOMELINE",1,1,"710",710,1021,"1021",1021,79,"M",1,2,"Xanomeline High Dose","TRANSDERMAL",3,"BLACK OR AFRICAN AMERICAN",3,"NOT HISPANIC OR LATINO",2,"PATCH",3,"USA",235,"United States of America",162.56,56.25,11,16,8.55,123.76,21.2860533142941,2.70933333333333,34.1017897543633,51.1403867328481,226
"CDISCPILOT01","01-710-1021",1,24,24,0,0,54,81,"DOSE",NA,1,"N",0,54,NA,NA,NA,1,NA,"2013-09-28T00:00:00",1,1,17,"Xanomeline Patch Dose",2,"XANOMELINE",1,1,"710",710,1021,"1021",1021,79,"M",1,2,"Xanomeline High Dose","TRANSDERMAL",3,"BLACK OR AFRICAN AMERICAN",3,"NOT HISPANIC OR LATINO",2,"PATCH",3,"USA",235,"United States of America",162.56,56.25,11,16,8.55,123.76,21.2860533142941,2.70933333333333,34.1017897543633,51.1403867328481,227
"CDISCPILOT01","01-710-1021",0,36,36,12,12,54,81,"XAN",0.01,2,"Y",1,NA,NA,NA,NA,1,"ug/ml","2013-09-28T12:00:00",0,0,18,"Pharmacokinetic concentration of Xanomeline",1,"XANOMELINE",1,1,"710",710,1021,"1021",1021,79,"M",1,2,"Xanomeline High Dose","TRANSDERMAL",3,"BLACK OR AFRICAN AMERICAN",3,"NOT HISPANIC OR LATINO",2,"PATCH",3,"USA",235,"United States of America",162.56,56.25,11,16,8.55,123.76,21.2860533142941,2.70933333333333,34.1017897543633,51.1403867328481,228
"CDISCPILOT01","01-710-1021",0,48,48,24,24,54,81,"XAN",0.01,2,"Y",1,NA,NA,NA,NA,1,"ug/ml","2013-09-29T00:00:00",0,0,19,"Pharmacokinetic concentration of Xanomeline",1,"XANOMELINE",1,1,"710",710,1021,"1021",1021,79,"M",1,2,"Xanomeline High Dose","TRANSDERMAL",3,"BLACK OR AFRICAN AMERICAN",3,"NOT HISPANIC OR LATINO",2,"PATCH",3,"USA",235,"United States of America",162.56,56.25,11,16,8.55,123.76,21.2860533142941,2.70933333333333,34.1017897543633,51.1403867328481,229
"CDISCPILOT01","01-710-1021",0,37,48,24,13,54,81,"XAN",0.01,3,"Y",1,NA,NA,NA,NA,1,"ug/ml","2013-09-29T00:00:00",0,0,20,"Pharmacokinetic concentration of Xanomeline",1,"XANOMELINE",1,1,"710",710,1021,"1021",1021,79,"M",1,2,"Xanomeline High Dose","TRANSDERMAL",3,"BLACK OR AFRICAN AMERICAN",3,"NOT HISPANIC OR LATINO",2,"PATCH",3,"USA",235,"United States of America",162.56,56.25,11,16,8.55,123.76,21.2860533142941,2.70933333333333,34.1017897543633,51.1403867328481,230
"CDISCPILOT01","01-710-1021",1,48,48,0,0,54,81,"DOSE",NA,1,"N",0,54,NA,NA,NA,1,NA,"2013-09-29T00:00:00",1,1,21,"Xanomeline Patch Dose",2,"XANOMELINE",1,1,"710",710,1021,"1021",1021,79,"M",1,2,"Xanomeline High Dose","TRANSDERMAL",3,"BLACK OR AFRICAN AMERICAN",3,"NOT HISPANIC OR LATINO",2,"PATCH",3,"USA",235,"United States of America",162.56,56.25,11,16,8.55,123.76,21.2860533142941,2.70933333333333,34.1017897543633,51.1403867328481,231
"CDISCPILOT01","01-704-1025",0,0,-0.5,-0.5,0,54,54,"XAN",0.01,2,"Y",1,NA,0,0,NA,0,"ug/ml","2013-09-26T23:30:00",0,0,1,"Pharmacokinetic concentration of Xanomeline",1,"XANOMELINE",1,1,"704",704,1025,"1025",1025,81,"F",2,1,"Xanomeline Low Dose","TRANSDERMAL",3,"WHITE",5,"NOT HISPANIC OR LATINO",2,"PATCH",3,"USA",235,"United States of America",166,55.52,19,30,8.55,79.56,20.1480621280302,2.76666666666667,42.8193464052288,64.243881656682,232
"CDISCPILOT01","01-704-1025",1,0,0,0,0,54,54,"DOSE",NA,1,"N",0,54,NA,NA,NA,1,NA,"2013-09-27T00:00:00",1,1,2,"Xanomeline Patch Dose",2,"XANOMELINE",1,1,"704",704,1025,"1025",1025,81,"F",2,1,"Xanomeline Low Dose","TRANSDERMAL",3,"WHITE",5,"NOT HISPANIC OR LATINO",2,"PATCH",3,"USA",235,"United States of America",166,55.52,19,30,8.55,79.56,20.1480621280302,2.76666666666667,42.8193464052288,64.243881656682,233
"CDISCPILOT01","01-704-1025",0,0.08,0.0833333333333333,0.0833333333333333,0.08,54,54,"XAN",0.01,2,"N",0,NA,0.0984810902430205,0.0984810902430205,-2.3178907264623,0,"ug/ml","2013-09-27T00:05:00",0,0,3,"Pharmacokinetic concentration of Xanomeline",1,"XANOMELINE",1,1,"704",704,1025,"1025",1025,81,"F",2,1,"Xanomeline Low Dose","TRANSDERMAL",3,"WHITE",5,"NOT HISPANIC OR LATINO",2,"PATCH",3,"USA",235,"United States of America",166,55.52,19,30,8.55,79.56,20.1480621280302,2.76666666666667,42.8193464052288,64.243881656682,234
"CDISCPILOT01","01-704-1025",0,0.5,0.5,0.5,0.5,54,54,"XAN",0.01,2,"N",0,NA,0.536305872836149,0.536305872836149,-0.623050622398452,0,"ug/ml","2013-09-27T00:30:00",0,0,4,"Pharmacokinetic concentration of Xanomeline",1,"XANOMELINE",1,1,"704",704,1025,"1025",1025,81,"F",2,1,"Xanomeline Low Dose","TRANSDERMAL",3,"WHITE",5,"NOT HISPANIC OR LATINO",2,"PATCH",3,"USA",235,"United States of America",166,55.52,19,30,8.55,79.56,20.1480621280302,2.76666666666667,42.8193464052288,64.243881656682,235
"CDISCPILOT01","01-704-1025",0,1,1,1,1,54,54,"XAN",0.01,2,"N",0,NA,0.91839241641985,0.91839241641985,-0.0851305108334948,0,"ug/ml","2013-09-27T01:00:00",0,0,5,"Pharmacokinetic concentration of Xanomeline",1,"XANOMELINE",1,1,"704",704,1025,"1025",1025,81,"F",2,1,"Xanomeline Low Dose","TRANSDERMAL",3,"WHITE",5,"NOT HISPANIC OR LATINO",2,"PATCH",3,"USA",235,"United States of America",166,55.52,19,30,8.55,79.56,20.1480621280302,2.76666666666667,42.8193464052288,64.243881656682,236
"CDISCPILOT01","01-704-1025",0,1.5,1.5,1.5,1.5,54,54,"XAN",0.01,2,"N",0,NA,1.190606714607,1.190606714607,0.174463021404602,0,"ug/ml","2013-09-27T01:30:00",0,0,6,"Pharmacokinetic concentration of Xanomeline",1,"XANOMELINE",1,1,"704",704,1025,"1025",1025,81,"F",2,1,"Xanomeline Low Dose","TRANSDERMAL",3,"WHITE",5,"NOT HISPANIC OR LATINO",2,"PATCH",3,"USA",235,"United States of America",166,55.52,19,30,8.55,79.56,20.1480621280302,2.76666666666667,42.8193464052288,64.243881656682,237
"CDISCPILOT01","01-704-1025",0,2,2,2,2,54,54,"XAN",0.01,2,"N",0,NA,1.38454346894153,1.38454346894153,0.325370459987963,0,"ug/ml","2013-09-27T02:00:00",0,0,7,"Pharmacokinetic concentration of Xanomeline",1,"XANOMELINE",1,1,"704",704,1025,"1025",1025,81,"F",2,1,"Xanomeline Low Dose","TRANSDERMAL",3,"WHITE",5,"NOT HISPANIC OR LATINO",2,"PATCH",3,"USA",235,"United States of America",166,55.52,19,30,8.55,79.56,20.1480621280302,2.76666666666667,42.8193464052288,64.243881656682,238
"CDISCPILOT01","01-704-1025",0,4,4,4,4,54,54,"XAN",0.01,2,"N",0,NA,1.74124367140277,1.74124367140277,0.55459961159143,0,"ug/ml","2013-09-27T04:00:00",0,0,8,"Pharmacokinetic concentration of Xanomeline",1,"XANOMELINE",1,1,"704",704,1025,"1025",1025,81,"F",2,1,"Xanomeline Low Dose","TRANSDERMAL",3,"WHITE",5,"NOT HISPANIC OR LATINO",2,"PATCH",3,"USA",235,"United States of America",166,55.52,19,30,8.55,79.56,20.1480621280302,2.76666666666667,42.8193464052288,64.243881656682,239
"CDISCPILOT01","01-704-1025",0,6,6,6,6,54,54,"XAN",0.01,2,"N",0,NA,1.83314041375147,1.83314041375147,0.606030569170533,0,"ug/ml","2013-09-27T06:00:00",0,0,9,"Pharmacokinetic concentration of Xanomeline",1,"XANOMELINE",1,1,"704",704,1025,"1025",1025,81,"F",2,1,"Xanomeline Low Dose","TRANSDERMAL",3,"WHITE",5,"NOT HISPANIC OR LATINO",2,"PATCH",3,"USA",235,"United States of America",166,55.52,19,30,8.55,79.56,20.1480621280302,2.76666666666667,42.8193464052288,64.243881656682,240
"CDISCPILOT01","01-704-1025",0,3,6,6,3,54,54,"XAN",0.01,3,"N",0,NA,27.7843121912378,27.7843121912378,3.32447155174626,0,"ug/ml","2013-09-27T06:00:00",0,0,10,"Pharmacokinetic concentration of Xanomeline",1,"XANOMELINE",1,1,"704",704,1025,"1025",1025,81,"F",2,1,"Xanomeline Low Dose","TRANSDERMAL",3,"WHITE",5,"NOT HISPANIC OR LATINO",2,"PATCH",3,"USA",235,"United States of America",166,55.52,19,30,8.55,79.56,20.1480621280302,2.76666666666667,42.8193464052288,64.243881656682,241
"CDISCPILOT01","01-704-1025",0,8,8,8,8,54,54,"XAN",0.01,2,"N",0,NA,1.85681578930783,1.85681578930783,0.618863079446801,0,"ug/ml","2013-09-27T08:00:00",0,0,11,"Pharmacokinetic concentration of Xanomeline",1,"XANOMELINE",1,1,"704",704,1025,"1025",1025,81,"F",2,1,"Xanomeline Low Dose","TRANSDERMAL",3,"WHITE",5,"NOT HISPANIC OR LATINO",2,"PATCH",3,"USA",235,"United States of America",166,55.52,19,30,8.55,79.56,20.1480621280302,2.76666666666667,42.8193464052288,64.243881656682,242
"CDISCPILOT01","01-704-1025",0,12,12,12,12,54,54,"XAN",0.01,2,"N",0,NA,0.574350167338939,0.574350167338939,-0.554516021037168,0,"ug/ml","2013-09-27T12:00:00",0,0,12,"Pharmacokinetic concentration of Xanomeline",1,"XANOMELINE",1,1,"704",704,1025,"1025",1025,81,"F",2,1,"Xanomeline Low Dose","TRANSDERMAL",3,"WHITE",5,"NOT HISPANIC OR LATINO",2,"PATCH",3,"USA",235,"United States of America",166,55.52,19,30,8.55,79.56,20.1480621280302,2.76666666666667,42.8193464052288,64.243881656682,243
"CDISCPILOT01","01-704-1025",0,9,12,12,9,54,54,"XAN",0.01,3,"N",0,NA,23.7156219542074,23.7156219542074,3.16613398518035,0,"ug/ml","2013-09-27T12:00:00",0,0,13,"Pharmacokinetic concentration of Xanomeline",1,"XANOMELINE",1,1,"704",704,1025,"1025",1025,81,"F",2,1,"Xanomeline Low Dose","TRANSDERMAL",3,"WHITE",5,"NOT HISPANIC OR LATINO",2,"PATCH",3,"USA",235,"United States of America",166,55.52,19,30,8.55,79.56,20.1480621280302,2.76666666666667,42.8193464052288,64.243881656682,244
"CDISCPILOT01","01-704-1025",0,16,16,16,16,54,54,"XAN",0.01,2,"N",0,NA,0.17687530766197,0.17687530766197,-1.73231027115452,0,"ug/ml","2013-09-27T16:00:00",0,0,14,"Pharmacokinetic concentration of Xanomeline",1,"XANOMELINE",1,1,"704",704,1025,"1025",1025,81,"F",2,1,"Xanomeline Low Dose","TRANSDERMAL",3,"WHITE",5,"NOT HISPANIC OR LATINO",2,"PATCH",3,"USA",235,"United States of America",166,55.52,19,30,8.55,79.56,20.1480621280302,2.76666666666667,42.8193464052288,64.243881656682,245
"CDISCPILOT01","01-704-1025",0,24,24,24,24,54,54,"XAN",0.01,2,"N",0,NA,0.0167744434941637,0.0167744434941637,-4.08789877138922,0,"ug/ml","2013-09-28T00:00:00",0,0,15,"Pharmacokinetic concentration of Xanomeline",1,"XANOMELINE",1,1,"704",704,1025,"1025",1025,81,"F",2,1,"Xanomeline Low Dose","TRANSDERMAL",3,"WHITE",5,"NOT HISPANIC OR LATINO",2,"PATCH",3,"USA",235,"United States of America",166,55.52,19,30,8.55,79.56,20.1480621280302,2.76666666666667,42.8193464052288,64.243881656682,246
"CDISCPILOT01","01-704-1025",0,18,24,24,18,54,54,"XAN",0.01,3,"N",0,NA,15.5782414801466,15.5782414801466,2.74587516373508,0,"ug/ml","2013-09-28T00:00:00",0,0,16,"Pharmacokinetic concentration of Xanomeline",1,"XANOMELINE",1,1,"704",704,1025,"1025",1025,81,"F",2,1,"Xanomeline Low Dose","TRANSDERMAL",3,"WHITE",5,"NOT HISPANIC OR LATINO",2,"PATCH",3,"USA",235,"United States of America",166,55.52,19,30,8.55,79.56,20.1480621280302,2.76666666666667,42.8193464052288,64.243881656682,247
"CDISCPILOT01","01-704-1025",1,24,24,0,0,54,54,"DOSE",NA,1,"N",0,54,NA,NA,NA,1,NA,"2013-09-28T00:00:00",1,1,17,"Xanomeline Patch Dose",2,"XANOMELINE",1,1,"704",704,1025,"1025",1025,81,"F",2,1,"Xanomeline Low Dose","TRANSDERMAL",3,"WHITE",5,"NOT HISPANIC OR LATINO",2,"PATCH",3,"USA",235,"United States of America",166,55.52,19,30,8.55,79.56,20.1480621280302,2.76666666666667,42.8193464052288,64.243881656682,248
"CDISCPILOT01","01-704-1025",0,36,36,12,12,54,54,"XAN",0.01,2,"Y",1,NA,NA,NA,NA,1,"ug/ml","2013-09-28T12:00:00",0,0,18,"Pharmacokinetic concentration of Xanomeline",1,"XANOMELINE",1,1,"704",704,1025,"1025",1025,81,"F",2,1,"Xanomeline Low Dose","TRANSDERMAL",3,"WHITE",5,"NOT HISPANIC OR LATINO",2,"PATCH",3,"USA",235,"United States of America",166,55.52,19,30,8.55,79.56,20.1480621280302,2.76666666666667,42.8193464052288,64.243881656682,249
"CDISCPILOT01","01-704-1025",0,48,48,24,24,54,54,"XAN",0.01,2,"Y",1,NA,NA,NA,NA,1,"ug/ml","2013-09-29T00:00:00",0,0,19,"Pharmacokinetic concentration of Xanomeline",1,"XANOMELINE",1,1,"704",704,1025,"1025",1025,81,"F",2,1,"Xanomeline Low Dose","TRANSDERMAL",3,"WHITE",5,"NOT HISPANIC OR LATINO",2,"PATCH",3,"USA",235,"United States of America",166,55.52,19,30,8.55,79.56,20.1480621280302,2.76666666666667,42.8193464052288,64.243881656682,250
"CDISCPILOT01","01-704-1025",0,37,48,24,13,54,54,"XAN",0.01,3,"Y",1,NA,NA,NA,NA,1,"ug/ml","2013-09-29T00:00:00",0,0,20,"Pharmacokinetic concentration of Xanomeline",1,"XANOMELINE",1,1,"704",704,1025,"1025",1025,81,"F",2,1,"Xanomeline Low Dose","TRANSDERMAL",3,"WHITE",5,"NOT HISPANIC OR LATINO",2,"PATCH",3,"USA",235,"United States of America",166,55.52,19,30,8.55,79.56,20.1480621280302,2.76666666666667,42.8193464052288,64.243881656682,251
"CDISCPILOT01","01-704-1025",1,48,48,0,0,54,54,"DOSE",NA,1,"N",0,54,NA,NA,NA,1,NA,"2013-09-29T00:00:00",1,1,21,"Xanomeline Patch Dose",2,"XANOMELINE",1,1,"704",704,1025,"1025",1025,81,"F",2,1,"Xanomeline Low Dose","TRANSDERMAL",3,"WHITE",5,"NOT HISPANIC OR LATINO",2,"PATCH",3,"USA",235,"United States of America",166,55.52,19,30,8.55,79.56,20.1480621280302,2.76666666666667,42.8193464052288,64.243881656682,252
"CDISCPILOT01","01-701-1028",0,0,-0.5,-0.5,0,54,81,"XAN",0.01,2,"Y",1,NA,0,0,NA,0,"ug/ml","2013-07-18T23:30:00",0,0,1,"Pharmacokinetic concentration of Xanomeline",1,"XANOMELINE",1,1,"701",701,1028,"1028",1028,71,"M",1,2,"Xanomeline High Dose","TRANSDERMAL",3,"WHITE",5,"NOT HISPANIC OR LATINO",2,"PATCH",3,"USA",235,"United States of America",177.8,99.34,26,24,18.81,123.76,31.4239403989012,2.96333333333333,68.1236732385262,53.7492079230433,253
"CDISCPILOT01","01-701-1028",1,0,0,0,0,54,81,"DOSE",NA,1,"N",0,54,NA,NA,NA,1,NA,"2013-07-19T00:00:00",1,1,2,"Xanomeline Patch Dose",2,"XANOMELINE",1,1,"701",701,1028,"1028",1028,71,"M",1,2,"Xanomeline High Dose","TRANSDERMAL",3,"WHITE",5,"NOT HISPANIC OR LATINO",2,"PATCH",3,"USA",235,"United States of America",177.8,99.34,26,24,18.81,123.76,31.4239403989012,2.96333333333333,68.1236732385262,53.7492079230433,254
"CDISCPILOT01","01-701-1028",0,0.08,0.0833333333333333,0.0833333333333333,0.08,54,81,"XAN",0.01,2,"N",0,NA,0.101566224882241,0.101566224882241,-2.28704423136701,0,"ug/ml","2013-07-19T00:05:00",0,0,3,"Pharmacokinetic concentration of Xanomeline",1,"XANOMELINE",1,1,"701",701,1028,"1028",1028,71,"M",1,2,"Xanomeline High Dose","TRANSDERMAL",3,"WHITE",5,"NOT HISPANIC OR LATINO",2,"PATCH",3,"USA",235,"United States of America",177.8,99.34,26,24,18.81,123.76,31.4239403989012,2.96333333333333,68.1236732385262,53.7492079230433,255
"CDISCPILOT01","01-701-1028",0,0.5,0.5,0.5,0.5,54,81,"XAN",0.01,2,"N",0,NA,0.546901773708848,0.546901773708848,-0.603486065429608,0,"ug/ml","2013-07-19T00:30:00",0,0,4,"Pharmacokinetic concentration of Xanomeline",1,"XANOMELINE",1,1,"701",701,1028,"1028",1028,71,"M",1,2,"Xanomeline High Dose","TRANSDERMAL",3,"WHITE",5,"NOT HISPANIC OR LATINO",2,"PATCH",3,"USA",235,"United States of America",177.8,99.34,26,24,18.81,123.76,31.4239403989012,2.96333333333333,68.1236732385262,53.7492079230433,256
"CDISCPILOT01","01-701-1028",0,1,1,1,1,54,81,"XAN",0.01,2,"N",0,NA,0.925465387145289,0.925465387145289,-0.0774585467546163,0,"ug/ml","2013-07-19T01:00:00",0,0,5,"Pharmacokinetic concentration of Xanomeline",1,"XANOMELINE",1,1,"701",701,1028,"1028",1028,71,"M",1,2,"Xanomeline High Dose","TRANSDERMAL",3,"WHITE",5,"NOT HISPANIC OR LATINO",2,"PATCH",3,"USA",235,"United States of America",177.8,99.34,26,24,18.81,123.76,31.4239403989012,2.96333333333333,68.1236732385262,53.7492079230433,257
"CDISCPILOT01","01-701-1028",0,1.5,1.5,1.5,1.5,54,81,"XAN",0.01,2,"N",0,NA,1.18750587834024,1.18750587834024,0.171855207095659,0,"ug/ml","2013-07-19T01:30:00",0,0,6,"Pharmacokinetic concentration of Xanomeline",1,"XANOMELINE",1,1,"701",701,1028,"1028",1028,71,"M",1,2,"Xanomeline High Dose","TRANSDERMAL",3,"WHITE",5,"NOT HISPANIC OR LATINO",2,"PATCH",3,"USA",235,"United States of America",177.8,99.34,26,24,18.81,123.76,31.4239403989012,2.96333333333333,68.1236732385262,53.7492079230433,258
"CDISCPILOT01","01-701-1028",0,2,2,2,2,54,81,"XAN",0.01,2,"N",0,NA,1.36888944661923,1.36888944661923,0.313999788201947,0,"ug/ml","2013-07-19T02:00:00",0,0,7,"Pharmacokinetic concentration of Xanomeline",1,"XANOMELINE",1,1,"701",701,1028,"1028",1028,71,"M",1,2,"Xanomeline High Dose","TRANSDERMAL",3,"WHITE",5,"NOT HISPANIC OR LATINO",2,"PATCH",3,"USA",235,"United States of America",177.8,99.34,26,24,18.81,123.76,31.4239403989012,2.96333333333333,68.1236732385262,53.7492079230433,259
"CDISCPILOT01","01-701-1028",0,4,4,4,4,54,81,"XAN",0.01,2,"N",0,NA,1.68314757616444,1.68314757616444,0.52066559773666,0,"ug/ml","2013-07-19T04:00:00",0,0,8,"Pharmacokinetic concentration of Xanomeline",1,"XANOMELINE",1,1,"701",701,1028,"1028",1028,71,"M",1,2,"Xanomeline High Dose","TRANSDERMAL",3,"WHITE",5,"NOT HISPANIC OR LATINO",2,"PATCH",3,"USA",235,"United States of America",177.8,99.34,26,24,18.81,123.76,31.4239403989012,2.96333333333333,68.1236732385262,53.7492079230433,260
"CDISCPILOT01","01-701-1028",0,6,6,6,6,54,81,"XAN",0.01,2,"N",0,NA,1.75529231526602,1.75529231526602,0.56263540445316,0,"ug/ml","2013-07-19T06:00:00",0,0,9,"Pharmacokinetic concentration of Xanomeline",1,"XANOMELINE",1,1,"701",701,1028,"1028",1028,71,"M",1,2,"Xanomeline High Dose","TRANSDERMAL",3,"WHITE",5,"NOT HISPANIC OR LATINO",2,"PATCH",3,"USA",235,"United States of America",177.8,99.34,26,24,18.81,123.76,31.4239403989012,2.96333333333333,68.1236732385262,53.7492079230433,261
"CDISCPILOT01","01-701-1028",0,3,6,6,3,54,81,"XAN",0.01,3,"N",0,NA,24.9423721084785,24.9423721084785,3.21656804833837,0,"ug/ml","2013-07-19T06:00:00",0,0,10,"Pharmacokinetic concentration of Xanomeline",1,"XANOMELINE",1,1,"701",701,1028,"1028",1028,71,"M",1,2,"Xanomeline High Dose","TRANSDERMAL",3,"WHITE",5,"NOT HISPANIC OR LATINO",2,"PATCH",3,"USA",235,"United States of America",177.8,99.34,26,24,18.81,123.76,31.4239403989012,2.96333333333333,68.1236732385262,53.7492079230433,262
"CDISCPILOT01","01-701-1028",0,8,8,8,8,54,81,"XAN",0.01,2,"N",0,NA,1.77185469787668,1.77185469787668,0.572026849879865,0,"ug/ml","2013-07-19T08:00:00",0,0,11,"Pharmacokinetic concentration of Xanomeline",1,"XANOMELINE",1,1,"701",701,1028,"1028",1028,71,"M",1,2,"Xanomeline High Dose","TRANSDERMAL",3,"WHITE",5,"NOT HISPANIC OR LATINO",2,"PATCH",3,"USA",235,"United States of America",177.8,99.34,26,24,18.81,123.76,31.4239403989012,2.96333333333333,68.1236732385262,53.7492079230433,263
"CDISCPILOT01","01-701-1028",0,12,12,12,12,54,81,"XAN",0.01,2,"N",0,NA,0.495035846465258,0.495035846465258,-0.703125101933908,0,"ug/ml","2013-07-19T12:00:00",0,0,12,"Pharmacokinetic concentration of Xanomeline",1,"XANOMELINE",1,1,"701",701,1028,"1028",1028,71,"M",1,2,"Xanomeline High Dose","TRANSDERMAL",3,"WHITE",5,"NOT HISPANIC OR LATINO",2,"PATCH",3,"USA",235,"United States of America",177.8,99.34,26,24,18.81,123.76,31.4239403989012,2.96333333333333,68.1236732385262,53.7492079230433,264
"CDISCPILOT01","01-701-1028",0,9,12,12,9,54,81,"XAN",0.01,3,"N",0,NA,20.527751057357,20.527751057357,3.02177768081987,0,"ug/ml","2013-07-19T12:00:00",0,0,13,"Pharmacokinetic concentration of Xanomeline",1,"XANOMELINE",1,1,"701",701,1028,"1028",1028,71,"M",1,2,"Xanomeline High Dose","TRANSDERMAL",3,"WHITE",5,"NOT HISPANIC OR LATINO",2,"PATCH",3,"USA",235,"United States of America",177.8,99.34,26,24,18.81,123.76,31.4239403989012,2.96333333333333,68.1236732385262,53.7492079230433,265
"CDISCPILOT01","01-701-1028",0,16,16,16,16,54,81,"XAN",0.01,2,"N",0,NA,0.13792316325323,0.13792316325323,-1.98105853690901,0,"ug/ml","2013-07-19T16:00:00",0,0,14,"Pharmacokinetic concentration of Xanomeline",1,"XANOMELINE",1,1,"701",701,1028,"1028",1028,71,"M",1,2,"Xanomeline High Dose","TRANSDERMAL",3,"WHITE",5,"NOT HISPANIC OR LATINO",2,"PATCH",3,"USA",235,"United States of America",177.8,99.34,26,24,18.81,123.76,31.4239403989012,2.96333333333333,68.1236732385262,53.7492079230433,266
"CDISCPILOT01","01-701-1028",0,24,24,24,24,54,81,"XAN",0.01,2,"N",0,NA,0.0107062734363561,0.0107062734363561,-4.53692540685922,0,"ug/ml","2013-07-20T00:00:00",0,0,15,"Pharmacokinetic concentration of Xanomeline",1,"XANOMELINE",1,1,"701",701,1028,"1028",1028,71,"M",1,2,"Xanomeline High Dose","TRANSDERMAL",3,"WHITE",5,"NOT HISPANIC OR LATINO",2,"PATCH",3,"USA",235,"United States of America",177.8,99.34,26,24,18.81,123.76,31.4239403989012,2.96333333333333,68.1236732385262,53.7492079230433,267
"CDISCPILOT01","01-701-1028",0,18,24,24,18,54,81,"XAN",0.01,3,"N",0,NA,11.698508955114,11.698508955114,2.45946139394873,0,"ug/ml","2013-07-20T00:00:00",0,0,16,"Pharmacokinetic concentration of Xanomeline",1,"XANOMELINE",1,1,"701",701,1028,"1028",1028,71,"M",1,2,"Xanomeline High Dose","TRANSDERMAL",3,"WHITE",5,"NOT HISPANIC OR LATINO",2,"PATCH",3,"USA",235,"United States of America",177.8,99.34,26,24,18.81,123.76,31.4239403989012,2.96333333333333,68.1236732385262,53.7492079230433,268
"CDISCPILOT01","01-701-1028",1,24,24,0,0,54,81,"DOSE",NA,1,"N",0,54,NA,NA,NA,1,NA,"2013-07-20T00:00:00",1,1,17,"Xanomeline Patch Dose",2,"XANOMELINE",1,1,"701",701,1028,"1028",1028,71,"M",1,2,"Xanomeline High Dose","TRANSDERMAL",3,"WHITE",5,"NOT HISPANIC OR LATINO",2,"PATCH",3,"USA",235,"United States of America",177.8,99.34,26,24,18.81,123.76,31.4239403989012,2.96333333333333,68.1236732385262,53.7492079230433,269
"CDISCPILOT01","01-701-1028",0,36,36,12,12,54,81,"XAN",0.01,2,"Y",1,NA,NA,NA,NA,1,"ug/ml","2013-07-20T12:00:00",0,0,18,"Pharmacokinetic concentration of Xanomeline",1,"XANOMELINE",1,1,"701",701,1028,"1028",1028,71,"M",1,2,"Xanomeline High Dose","TRANSDERMAL",3,"WHITE",5,"NOT HISPANIC OR LATINO",2,"PATCH",3,"USA",235,"United States of America",177.8,99.34,26,24,18.81,123.76,31.4239403989012,2.96333333333333,68.1236732385262,53.7492079230433,270
"CDISCPILOT01","01-701-1028",0,48,48,24,24,54,81,"XAN",0.01,2,"Y",1,NA,NA,NA,NA,1,"ug/ml","2013-07-21T00:00:00",0,0,19,"Pharmacokinetic concentration of Xanomeline",1,"XANOMELINE",1,1,"701",701,1028,"1028",1028,71,"M",1,2,"Xanomeline High Dose","TRANSDERMAL",3,"WHITE",5,"NOT HISPANIC OR LATINO",2,"PATCH",3,"USA",235,"United States of America",177.8,99.34,26,24,18.81,123.76,31.4239403989012,2.96333333333333,68.1236732385262,53.7492079230433,271
"CDISCPILOT01","01-701-1028",0,37,48,24,13,54,81,"XAN",0.01,3,"Y",1,NA,NA,NA,NA,1,"ug/ml","2013-07-21T00:00:00",0,0,20,"Pharmacokinetic concentration of Xanomeline",1,"XANOMELINE",1,1,"701",701,1028,"1028",1028,71,"M",1,2,"Xanomeline High Dose","TRANSDERMAL",3,"WHITE",5,"NOT HISPANIC OR LATINO",2,"PATCH",3,"USA",235,"United States of America",177.8,99.34,26,24,18.81,123.76,31.4239403989012,2.96333333333333,68.1236732385262,53.7492079230433,272
"CDISCPILOT01","01-701-1028",1,48,48,0,0,54,81,"DOSE",NA,1,"N",0,54,NA,NA,NA,1,NA,"2013-07-21T00:00:00",1,1,21,"Xanomeline Patch Dose",2,"XANOMELINE",1,1,"701",701,1028,"1028",1028,71,"M",1,2,"Xanomeline High Dose","TRANSDERMAL",3,"WHITE",5,"NOT HISPANIC OR LATINO",2,"PATCH",3,"USA",235,"United States of America",177.8,99.34,26,24,18.81,123.76,31.4239403989012,2.96333333333333,68.1236732385262,53.7492079230433,273
"CDISCPILOT01","01-709-1029",0,0,-0.5,-0.5,0,54,81,"XAN",0.01,2,"Y",1,NA,0,0,NA,0,"ug/ml","2012-12-24T23:30:00",0,0,1,"Pharmacokinetic concentration of Xanomeline",1,"XANOMELINE",1,1,"709",709,1029,"1029",1029,82,"M",1,2,"Xanomeline High Dose","TRANSDERMAL",3,"WHITE",5,"NOT HISPANIC OR LATINO",2,"PATCH",3,"USA",235,"United States of America",172.72,68.95,17,18,23.94,114.92,23.1126111041149,2.87866666666667,42.8027584406544,54.863385718363,274
"CDISCPILOT01","01-709-1029",1,0,0,0,0,54,81,"DOSE",NA,1,"N",0,54,NA,NA,NA,1,NA,"2012-12-25T00:00:00",1,1,2,"Xanomeline Patch Dose",2,"XANOMELINE",1,1,"709",709,1029,"1029",1029,82,"M",1,2,"Xanomeline High Dose","TRANSDERMAL",3,"WHITE",5,"NOT HISPANIC OR LATINO",2,"PATCH",3,"USA",235,"United States of America",172.72,68.95,17,18,23.94,114.92,23.1126111041149,2.87866666666667,42.8027584406544,54.863385718363,275
"CDISCPILOT01","01-709-1029",0,0.08,0.0833333333333333,0.0833333333333333,0.08,54,81,"XAN",0.01,2,"N",0,NA,0.0952522844877681,0.0952522844877681,-2.35122628113939,0,"ug/ml","2012-12-25T00:05:00",0,0,3,"Pharmacokinetic concentration of Xanomeline",1,"XANOMELINE",1,1,"709",709,1029,"1029",1029,82,"M",1,2,"Xanomeline High Dose","TRANSDERMAL",3,"WHITE",5,"NOT HISPANIC OR LATINO",2,"PATCH",3,"USA",235,"United States of America",172.72,68.95,17,18,23.94,114.92,23.1126111041149,2.87866666666667,42.8027584406544,54.863385718363,276
"CDISCPILOT01","01-709-1029",0,0.5,0.5,0.5,0.5,54,81,"XAN",0.01,2,"N",0,NA,0.519784528596426,0.519784528596426,-0.654340921364638,0,"ug/ml","2012-12-25T00:30:00",0,0,4,"Pharmacokinetic concentration of Xanomeline",1,"XANOMELINE",1,1,"709",709,1029,"1029",1029,82,"M",1,2,"Xanomeline High Dose","TRANSDERMAL",3,"WHITE",5,"NOT HISPANIC OR LATINO",2,"PATCH",3,"USA",235,"United States of America",172.72,68.95,17,18,23.94,114.92,23.1126111041149,2.87866666666667,42.8027584406544,54.863385718363,277
"CDISCPILOT01","01-709-1029",0,1,1,1,1,54,81,"XAN",0.01,2,"N",0,NA,0.892034127132304,0.892034127132304,-0.114250888017056,0,"ug/ml","2012-12-25T01:00:00",0,0,5,"Pharmacokinetic concentration of Xanomeline",1,"XANOMELINE",1,1,"709",709,1029,"1029",1029,82,"M",1,2,"Xanomeline High Dose","TRANSDERMAL",3,"WHITE",5,"NOT HISPANIC OR LATINO",2,"PATCH",3,"USA",235,"United States of America",172.72,68.95,17,18,23.94,114.92,23.1126111041149,2.87866666666667,42.8027584406544,54.863385718363,278
"CDISCPILOT01","01-709-1029",0,1.5,1.5,1.5,1.5,54,81,"XAN",0.01,2,"N",0,NA,1.15862490847838,1.15862490847838,0.147233878222275,0,"ug/ml","2012-12-25T01:30:00",0,0,6,"Pharmacokinetic concentration of Xanomeline",1,"XANOMELINE",1,1,"709",709,1029,"1029",1029,82,"M",1,2,"Xanomeline High Dose","TRANSDERMAL",3,"WHITE",5,"NOT HISPANIC OR LATINO",2,"PATCH",3,"USA",235,"United States of America",172.72,68.95,17,18,23.94,114.92,23.1126111041149,2.87866666666667,42.8027584406544,54.863385718363,279
"CDISCPILOT01","01-709-1029",0,2,2,2,2,54,81,"XAN",0.01,2,"N",0,NA,1.34954692687207,1.34954692687207,0.299768926396398,0,"ug/ml","2012-12-25T02:00:00",0,0,7,"Pharmacokinetic concentration of Xanomeline",1,"XANOMELINE",1,1,"709",709,1029,"1029",1029,82,"M",1,2,"Xanomeline High Dose","TRANSDERMAL",3,"WHITE",5,"NOT HISPANIC OR LATINO",2,"PATCH",3,"USA",235,"United States of America",172.72,68.95,17,18,23.94,114.92,23.1126111041149,2.87866666666667,42.8027584406544,54.863385718363,280
"CDISCPILOT01","01-709-1029",0,4,4,4,4,54,81,"XAN",0.01,2,"N",0,NA,1.70454953888928,1.70454953888928,0.533300875763557,0,"ug/ml","2012-12-25T04:00:00",0,0,8,"Pharmacokinetic concentration of Xanomeline",1,"XANOMELINE",1,1,"709",709,1029,"1029",1029,82,"M",1,2,"Xanomeline High Dose","TRANSDERMAL",3,"WHITE",5,"NOT HISPANIC OR LATINO",2,"PATCH",3,"USA",235,"United States of America",172.72,68.95,17,18,23.94,114.92,23.1126111041149,2.87866666666667,42.8027584406544,54.863385718363,281
"CDISCPILOT01","01-709-1029",0,6,6,6,6,54,81,"XAN",0.01,2,"N",0,NA,1.79793410524233,1.79793410524233,0.586638286458115,0,"ug/ml","2012-12-25T06:00:00",0,0,9,"Pharmacokinetic concentration of Xanomeline",1,"XANOMELINE",1,1,"709",709,1029,"1029",1029,82,"M",1,2,"Xanomeline High Dose","TRANSDERMAL",3,"WHITE",5,"NOT HISPANIC OR LATINO",2,"PATCH",3,"USA",235,"United States of America",172.72,68.95,17,18,23.94,114.92,23.1126111041149,2.87866666666667,42.8027584406544,54.863385718363,282
"CDISCPILOT01","01-709-1029",0,3,6,6,3,54,81,"XAN",0.01,3,"N",0,NA,28.3436833626715,28.3436833626715,3.34440419627129,0,"ug/ml","2012-12-25T06:00:00",0,0,10,"Pharmacokinetic concentration of Xanomeline",1,"XANOMELINE",1,1,"709",709,1029,"1029",1029,82,"M",1,2,"Xanomeline High Dose","TRANSDERMAL",3,"WHITE",5,"NOT HISPANIC OR LATINO",2,"PATCH",3,"USA",235,"United States of America",172.72,68.95,17,18,23.94,114.92,23.1126111041149,2.87866666666667,42.8027584406544,54.863385718363,283
"CDISCPILOT01","01-709-1029",0,8,8,8,8,54,81,"XAN",0.01,2,"N",0,NA,1.82249921247745,1.82249921247745,0.600208752789442,0,"ug/ml","2012-12-25T08:00:00",0,0,11,"Pharmacokinetic concentration of Xanomeline",1,"XANOMELINE",1,1,"709",709,1029,"1029",1029,82,"M",1,2,"Xanomeline High Dose","TRANSDERMAL",3,"WHITE",5,"NOT HISPANIC OR LATINO",2,"PATCH",3,"USA",235,"United States of America",172.72,68.95,17,18,23.94,114.92,23.1126111041149,2.87866666666667,42.8027584406544,54.863385718363,284
"CDISCPILOT01","01-709-1029",0,12,12,12,12,54,81,"XAN",0.01,2,"N",0,NA,0.574247127000585,0.574247127000585,-0.554695440471879,0,"ug/ml","2012-12-25T12:00:00",0,0,12,"Pharmacokinetic concentration of Xanomeline",1,"XANOMELINE",1,1,"709",709,1029,"1029",1029,82,"M",1,2,"Xanomeline High Dose","TRANSDERMAL",3,"WHITE",5,"NOT HISPANIC OR LATINO",2,"PATCH",3,"USA",235,"United States of America",172.72,68.95,17,18,23.94,114.92,23.1126111041149,2.87866666666667,42.8027584406544,54.863385718363,285
"CDISCPILOT01","01-709-1029",0,9,12,12,9,54,81,"XAN",0.01,3,"N",0,NA,24.3374861882659,24.3374861882659,3.19201780318982,0,"ug/ml","2012-12-25T12:00:00",0,0,13,"Pharmacokinetic concentration of Xanomeline",1,"XANOMELINE",1,1,"709",709,1029,"1029",1029,82,"M",1,2,"Xanomeline High Dose","TRANSDERMAL",3,"WHITE",5,"NOT HISPANIC OR LATINO",2,"PATCH",3,"USA",235,"United States of America",172.72,68.95,17,18,23.94,114.92,23.1126111041149,2.87866666666667,42.8027584406544,54.863385718363,286
"CDISCPILOT01","01-709-1029",0,16,16,16,16,54,81,"XAN",0.01,2,"N",0,NA,0.180071847404831,0.180071847404831,-1.71439935548293,0,"ug/ml","2012-12-25T16:00:00",0,0,14,"Pharmacokinetic concentration of Xanomeline",1,"XANOMELINE",1,1,"709",709,1029,"1029",1029,82,"M",1,2,"Xanomeline High Dose","TRANSDERMAL",3,"WHITE",5,"NOT HISPANIC OR LATINO",2,"PATCH",3,"USA",235,"United States of America",172.72,68.95,17,18,23.94,114.92,23.1126111041149,2.87866666666667,42.8027584406544,54.863385718363,287
"CDISCPILOT01","01-709-1029",0,24,24,24,24,54,81,"XAN",0.01,2,"N",0,NA,0.0177067884354254,0.0177067884354254,-4.03380718550503,0,"ug/ml","2012-12-26T00:00:00",0,0,15,"Pharmacokinetic concentration of Xanomeline",1,"XANOMELINE",1,1,"709",709,1029,"1029",1029,82,"M",1,2,"Xanomeline High Dose","TRANSDERMAL",3,"WHITE",5,"NOT HISPANIC OR LATINO",2,"PATCH",3,"USA",235,"United States of America",172.72,68.95,17,18,23.94,114.92,23.1126111041149,2.87866666666667,42.8027584406544,54.863385718363,288
"CDISCPILOT01","01-709-1029",0,18,24,24,18,54,81,"XAN",0.01,3,"N",0,NA,16.3250918394545,16.3250918394545,2.79270330084067,0,"ug/ml","2012-12-26T00:00:00",0,0,16,"Pharmacokinetic concentration of Xanomeline",1,"XANOMELINE",1,1,"709",709,1029,"1029",1029,82,"M",1,2,"Xanomeline High Dose","TRANSDERMAL",3,"WHITE",5,"NOT HISPANIC OR LATINO",2,"PATCH",3,"USA",235,"United States of America",172.72,68.95,17,18,23.94,114.92,23.1126111041149,2.87866666666667,42.8027584406544,54.863385718363,289
"CDISCPILOT01","01-709-1029",1,24,24,0,0,54,81,"DOSE",NA,1,"N",0,54,NA,NA,NA,1,NA,"2012-12-26T00:00:00",1,1,17,"Xanomeline Patch Dose",2,"XANOMELINE",1,1,"709",709,1029,"1029",1029,82,"M",1,2,"Xanomeline High Dose","TRANSDERMAL",3,"WHITE",5,"NOT HISPANIC OR LATINO",2,"PATCH",3,"USA",235,"United States of America",172.72,68.95,17,18,23.94,114.92,23.1126111041149,2.87866666666667,42.8027584406544,54.863385718363,290
"CDISCPILOT01","01-709-1029",0,36,36,12,12,54,81,"XAN",0.01,2,"Y",1,NA,NA,NA,NA,1,"ug/ml","2012-12-26T12:00:00",0,0,18,"Pharmacokinetic concentration of Xanomeline",1,"XANOMELINE",1,1,"709",709,1029,"1029",1029,82,"M",1,2,"Xanomeline High Dose","TRANSDERMAL",3,"WHITE",5,"NOT HISPANIC OR LATINO",2,"PATCH",3,"USA",235,"United States of America",172.72,68.95,17,18,23.94,114.92,23.1126111041149,2.87866666666667,42.8027584406544,54.863385718363,291
"CDISCPILOT01","01-709-1029",0,48,48,24,24,54,81,"XAN",0.01,2,"Y",1,NA,NA,NA,NA,1,"ug/ml","2012-12-27T00:00:00",0,0,19,"Pharmacokinetic concentration of Xanomeline",1,"XANOMELINE",1,1,"709",709,1029,"1029",1029,82,"M",1,2,"Xanomeline High Dose","TRANSDERMAL",3,"WHITE",5,"NOT HISPANIC OR LATINO",2,"PATCH",3,"USA",235,"United States of America",172.72,68.95,17,18,23.94,114.92,23.1126111041149,2.87866666666667,42.8027584406544,54.863385718363,292
"CDISCPILOT01","01-709-1029",0,37,48,24,13,54,81,"XAN",0.01,3,"N",0,NA,0.30030314183179,0.30030314183179,-1.20296284173726,0,"ug/ml","2012-12-27T00:00:00",0,0,20,"Pharmacokinetic concentration of Xanomeline",1,"XANOMELINE",1,1,"709",709,1029,"1029",1029,82,"M",1,2,"Xanomeline High Dose","TRANSDERMAL",3,"WHITE",5,"NOT HISPANIC OR LATINO",2,"PATCH",3,"USA",235,"United States of America",172.72,68.95,17,18,23.94,114.92,23.1126111041149,2.87866666666667,42.8027584406544,54.863385718363,293
"CDISCPILOT01","01-709-1029",1,48,48,0,0,54,81,"DOSE",NA,1,"N",0,54,NA,NA,NA,1,NA,"2012-12-27T00:00:00",1,1,21,"Xanomeline Patch Dose",2,"XANOMELINE",1,1,"709",709,1029,"1029",1029,82,"M",1,2,"Xanomeline High Dose","TRANSDERMAL",3,"WHITE",5,"NOT HISPANIC OR LATINO",2,"PATCH",3,"USA",235,"United States of America",172.72,68.95,17,18,23.94,114.92,23.1126111041149,2.87866666666667,42.8027584406544,54.863385718363,294
"CDISCPILOT01","01-716-1030",0,0,-0.5,-0.5,0,54,81,"XAN",0.01,2,"Y",1,NA,0,0,NA,0,"ug/ml","2013-12-27T23:30:00",0,0,1,"Pharmacokinetic concentration of Xanomeline",1,"XANOMELINE",1,1,"716",716,1030,"1030",1030,83,"F",2,2,"Xanomeline High Dose","TRANSDERMAL",3,"WHITE",5,"NOT HISPANIC OR LATINO",2,"PATCH",3,"USA",235,"United States of America",150.62,75.3,15,22,11.97,97.24,33.1917147626221,2.51033333333333,45.9048128342246,49.8711688850674,295
"CDISCPILOT01","01-716-1030",1,0,0,0,0,54,81,"DOSE",NA,1,"N",0,54,NA,NA,NA,1,NA,"2013-12-28T00:00:00",1,1,2,"Xanomeline Patch Dose",2,"XANOMELINE",1,1,"716",716,1030,"1030",1030,83,"F",2,2,"Xanomeline High Dose","TRANSDERMAL",3,"WHITE",5,"NOT HISPANIC OR LATINO",2,"PATCH",3,"USA",235,"United States of America",150.62,75.3,15,22,11.97,97.24,33.1917147626221,2.51033333333333,45.9048128342246,49.8711688850674,296
"CDISCPILOT01","01-716-1030",0,0.08,0.0833333333333333,0.0833333333333333,0.08,54,81,"XAN",0.01,2,"N",0,NA,0.104473482980517,0.104473482980517,-2.25882199116022,0,"ug/ml","2013-12-28T00:05:00",0,0,3,"Pharmacokinetic concentration of Xanomeline",1,"XANOMELINE",1,1,"716",716,1030,"1030",1030,83,"F",2,2,"Xanomeline High Dose","TRANSDERMAL",3,"WHITE",5,"NOT HISPANIC OR LATINO",2,"PATCH",3,"USA",235,"United States of America",150.62,75.3,15,22,11.97,97.24,33.1917147626221,2.51033333333333,45.9048128342246,49.8711688850674,297
"CDISCPILOT01","01-716-1030",0,0.5,0.5,0.5,0.5,54,81,"XAN",0.01,2,"N",0,NA,0.564574028752367,0.564574028752367,-0.571683763596652,0,"ug/ml","2013-12-28T00:30:00",0,0,4,"Pharmacokinetic concentration of Xanomeline",1,"XANOMELINE",1,1,"716",716,1030,"1030",1030,83,"F",2,2,"Xanomeline High Dose","TRANSDERMAL",3,"WHITE",5,"NOT HISPANIC OR LATINO",2,"PATCH",3,"USA",235,"United States of America",150.62,75.3,15,22,11.97,97.24,33.1917147626221,2.51033333333333,45.9048128342246,49.8711688850674,298
"CDISCPILOT01","01-716-1030",0,1,1,1,1,54,81,"XAN",0.01,2,"N",0,NA,0.95896895744595,0.95896895744595,-0.0418965743348611,0,"ug/ml","2013-12-28T01:00:00",0,0,5,"Pharmacokinetic concentration of Xanomeline",1,"XANOMELINE",1,1,"716",716,1030,"1030",1030,83,"F",2,2,"Xanomeline High Dose","TRANSDERMAL",3,"WHITE",5,"NOT HISPANIC OR LATINO",2,"PATCH",3,"USA",235,"United States of America",150.62,75.3,15,22,11.97,97.24,33.1917147626221,2.51033333333333,45.9048128342246,49.8711688850674,299
"CDISCPILOT01","01-716-1030",0,1.5,1.5,1.5,1.5,54,81,"XAN",0.01,2,"N",0,NA,1.23448173674073,1.23448173674073,0.210651235639985,0,"ug/ml","2013-12-28T01:30:00",0,0,6,"Pharmacokinetic concentration of Xanomeline",1,"XANOMELINE",1,1,"716",716,1030,"1030",1030,83,"F",2,2,"Xanomeline High Dose","TRANSDERMAL",3,"WHITE",5,"NOT HISPANIC OR LATINO",2,"PATCH",3,"USA",235,"United States of America",150.62,75.3,15,22,11.97,97.24,33.1917147626221,2.51033333333333,45.9048128342246,49.8711688850674,300
"CDISCPILOT01","01-716-1030",0,2,2,2,2,54,81,"XAN",0.01,2,"N",0,NA,1.42694691829409,1.42694691829409,0.355537139690775,0,"ug/ml","2013-12-28T02:00:00",0,0,7,"Pharmacokinetic concentration of Xanomeline",1,"XANOMELINE",1,1,"716",716,1030,"1030",1030,83,"F",2,2,"Xanomeline High Dose","TRANSDERMAL",3,"WHITE",5,"NOT HISPANIC OR LATINO",2,"PATCH",3,"USA",235,"United States of America",150.62,75.3,15,22,11.97,97.24,33.1917147626221,2.51033333333333,45.9048128342246,49.8711688850674,301
"CDISCPILOT01","01-716-1030",0,4,4,4,4,54,81,"XAN",0.01,2,"N",0,NA,1.76676737668734,1.76676737668734,0.569151535937284,0,"ug/ml","2013-12-28T04:00:00",0,0,8,"Pharmacokinetic concentration of Xanomeline",1,"XANOMELINE",1,1,"716",716,1030,"1030",1030,83,"F",2,2,"Xanomeline High Dose","TRANSDERMAL",3,"WHITE",5,"NOT HISPANIC OR LATINO",2,"PATCH",3,"USA",235,"United States of America",150.62,75.3,15,22,11.97,97.24,33.1917147626221,2.51033333333333,45.9048128342246,49.8711688850674,302
"CDISCPILOT01","01-716-1030",0,6,6,6,6,54,81,"XAN",0.01,2,"N",0,NA,1.84769396369777,1.84769396369777,0.613938355445979,0,"ug/ml","2013-12-28T06:00:00",0,0,9,"Pharmacokinetic concentration of Xanomeline",1,"XANOMELINE",1,1,"716",716,1030,"1030",1030,83,"F",2,2,"Xanomeline High Dose","TRANSDERMAL",3,"WHITE",5,"NOT HISPANIC OR LATINO",2,"PATCH",3,"USA",235,"United States of America",150.62,75.3,15,22,11.97,97.24,33.1917147626221,2.51033333333333,45.9048128342246,49.8711688850674,303
"CDISCPILOT01","01-716-1030",0,3,6,6,3,54,81,"XAN",0.01,3,"N",0,NA,25.8025270929498,25.8025270929498,3.25047243646999,0,"ug/ml","2013-12-28T06:00:00",0,0,10,"Pharmacokinetic concentration of Xanomeline",1,"XANOMELINE",1,1,"716",716,1030,"1030",1030,83,"F",2,2,"Xanomeline High Dose","TRANSDERMAL",3,"WHITE",5,"NOT HISPANIC OR LATINO",2,"PATCH",3,"USA",235,"United States of America",150.62,75.3,15,22,11.97,97.24,33.1917147626221,2.51033333333333,45.9048128342246,49.8711688850674,304
"CDISCPILOT01","01-716-1030",0,8,8,8,8,54,81,"XAN",0.01,2,"N",0,NA,1.86696623622699,1.86696623622699,0.624314779889892,0,"ug/ml","2013-12-28T08:00:00",0,0,11,"Pharmacokinetic concentration of Xanomeline",1,"XANOMELINE",1,1,"716",716,1030,"1030",1030,83,"F",2,2,"Xanomeline High Dose","TRANSDERMAL",3,"WHITE",5,"NOT HISPANIC OR LATINO",2,"PATCH",3,"USA",235,"United States of America",150.62,75.3,15,22,11.97,97.24,33.1917147626221,2.51033333333333,45.9048128342246,49.8711688850674,305
"CDISCPILOT01","01-716-1030",0,12,12,12,12,54,81,"XAN",0.01,2,"N",0,NA,0.538721942483237,0.538721942483237,-0.618555717837759,0,"ug/ml","2013-12-28T12:00:00",0,0,12,"Pharmacokinetic concentration of Xanomeline",1,"XANOMELINE",1,1,"716",716,1030,"1030",1030,83,"F",2,2,"Xanomeline High Dose","TRANSDERMAL",3,"WHITE",5,"NOT HISPANIC OR LATINO",2,"PATCH",3,"USA",235,"United States of America",150.62,75.3,15,22,11.97,97.24,33.1917147626221,2.51033333333333,45.9048128342246,49.8711688850674,306
"CDISCPILOT01","01-716-1030",0,9,12,12,9,54,81,"XAN",0.01,3,"N",0,NA,21.4979020806899,21.4979020806899,3.06795535273028,0,"ug/ml","2013-12-28T12:00:00",0,0,13,"Pharmacokinetic concentration of Xanomeline",1,"XANOMELINE",1,1,"716",716,1030,"1030",1030,83,"F",2,2,"Xanomeline High Dose","TRANSDERMAL",3,"WHITE",5,"NOT HISPANIC OR LATINO",2,"PATCH",3,"USA",235,"United States of America",150.62,75.3,15,22,11.97,97.24,33.1917147626221,2.51033333333333,45.9048128342246,49.8711688850674,307
"CDISCPILOT01","01-716-1030",0,16,16,16,16,54,81,"XAN",0.01,2,"N",0,NA,0.154950777776395,0.154950777776395,-1.86464777522955,0,"ug/ml","2013-12-28T16:00:00",0,0,14,"Pharmacokinetic concentration of Xanomeline",1,"XANOMELINE",1,1,"716",716,1030,"1030",1030,83,"F",2,2,"Xanomeline High Dose","TRANSDERMAL",3,"WHITE",5,"NOT HISPANIC OR LATINO",2,"PATCH",3,"USA",235,"United States of America",150.62,75.3,15,22,11.97,97.24,33.1917147626221,2.51033333333333,45.9048128342246,49.8711688850674,308
"CDISCPILOT01","01-716-1030",0,24,24,24,24,54,81,"XAN",0.01,2,"N",0,NA,0.0128189351826724,0.0128189351826724,-4.35683189001312,0,"ug/ml","2013-12-29T00:00:00",0,0,15,"Pharmacokinetic concentration of Xanomeline",1,"XANOMELINE",1,1,"716",716,1030,"1030",1030,83,"F",2,2,"Xanomeline High Dose","TRANSDERMAL",3,"WHITE",5,"NOT HISPANIC OR LATINO",2,"PATCH",3,"USA",235,"United States of America",150.62,75.3,15,22,11.97,97.24,33.1917147626221,2.51033333333333,45.9048128342246,49.8711688850674,309
"CDISCPILOT01","01-716-1030",0,18,24,24,18,54,81,"XAN",0.01,3,"N",0,NA,12.88865205617,12.88865205617,2.556347238649,0,"ug/ml","2013-12-29T00:00:00",0,0,16,"Pharmacokinetic concentration of Xanomeline",1,"XANOMELINE",1,1,"716",716,1030,"1030",1030,83,"F",2,2,"Xanomeline High Dose","TRANSDERMAL",3,"WHITE",5,"NOT HISPANIC OR LATINO",2,"PATCH",3,"USA",235,"United States of America",150.62,75.3,15,22,11.97,97.24,33.1917147626221,2.51033333333333,45.9048128342246,49.8711688850674,310
"CDISCPILOT01","01-716-1030",1,24,24,0,0,54,81,"DOSE",NA,1,"N",0,54,NA,NA,NA,1,NA,"2013-12-29T00:00:00",1,1,17,"Xanomeline Patch Dose",2,"XANOMELINE",1,1,"716",716,1030,"1030",1030,83,"F",2,2,"Xanomeline High Dose","TRANSDERMAL",3,"WHITE",5,"NOT HISPANIC OR LATINO",2,"PATCH",3,"USA",235,"United States of America",150.62,75.3,15,22,11.97,97.24,33.1917147626221,2.51033333333333,45.9048128342246,49.8711688850674,311
"CDISCPILOT01","01-716-1030",0,36,36,12,12,54,81,"XAN",0.01,2,"Y",1,NA,NA,NA,NA,1,"ug/ml","2013-12-29T12:00:00",0,0,18,"Pharmacokinetic concentration of Xanomeline",1,"XANOMELINE",1,1,"716",716,1030,"1030",1030,83,"F",2,2,"Xanomeline High Dose","TRANSDERMAL",3,"WHITE",5,"NOT HISPANIC OR LATINO",2,"PATCH",3,"USA",235,"United States of America",150.62,75.3,15,22,11.97,97.24,33.1917147626221,2.51033333333333,45.9048128342246,49.8711688850674,312
"CDISCPILOT01","01-716-1030",0,48,48,24,24,54,81,"XAN",0.01,2,"Y",1,NA,NA,NA,NA,1,"ug/ml","2013-12-30T00:00:00",0,0,19,"Pharmacokinetic concentration of Xanomeline",1,"XANOMELINE",1,1,"716",716,1030,"1030",1030,83,"F",2,2,"Xanomeline High Dose","TRANSDERMAL",3,"WHITE",5,"NOT HISPANIC OR LATINO",2,"PATCH",3,"USA",235,"United States of America",150.62,75.3,15,22,11.97,97.24,33.1917147626221,2.51033333333333,45.9048128342246,49.8711688850674,313
"CDISCPILOT01","01-716-1030",0,37,48,24,13,54,81,"XAN",0.01,3,"Y",1,NA,NA,NA,NA,1,"ug/ml","2013-12-30T00:00:00",0,0,20,"Pharmacokinetic concentration of Xanomeline",1,"XANOMELINE",1,1,"716",716,1030,"1030",1030,83,"F",2,2,"Xanomeline High Dose","TRANSDERMAL",3,"WHITE",5,"NOT HISPANIC OR LATINO",2,"PATCH",3,"USA",235,"United States of America",150.62,75.3,15,22,11.97,97.24,33.1917147626221,2.51033333333333,45.9048128342246,49.8711688850674,314
"CDISCPILOT01","01-716-1030",1,48,48,0,0,54,81,"DOSE",NA,1,"N",0,54,NA,NA,NA,1,NA,"2013-12-30T00:00:00",1,1,21,"Xanomeline Patch Dose",2,"XANOMELINE",1,1,"716",716,1030,"1030",1030,83,"F",2,2,"Xanomeline High Dose","TRANSDERMAL",3,"WHITE",5,"NOT HISPANIC OR LATINO",2,"PATCH",3,"USA",235,"United States of America",150.62,75.3,15,22,11.97,97.24,33.1917147626221,2.51033333333333,45.9048128342246,49.8711688850674,315
"CDISCPILOT01","01-705-1031",0,0,-0.5,-0.5,0,54,54,"XAN",0.01,2,"Y",1,NA,0,0,NA,0,"ug/ml","2013-11-26T23:30:00",0,0,1,"Pharmacokinetic concentration of Xanomeline",1,"XANOMELINE",1,1,"705",705,1031,"1031",1031,56,"F",2,1,"Xanomeline Low Dose","TRANSDERMAL",3,"WHITE",5,"HISPANIC OR LATINO",1,"PATCH",3,"USA",235,"United States of America",157.48,71.67,18,16,5.13,88.4,28.8992513468898,2.62466666666667,70.8268235294118,66.1375304520839,316
"CDISCPILOT01","01-705-1031",1,0,0,0,0,54,54,"DOSE",NA,1,"N",0,54,NA,NA,NA,1,NA,"2013-11-27T00:00:00",1,1,2,"Xanomeline Patch Dose",2,"XANOMELINE",1,1,"705",705,1031,"1031",1031,56,"F",2,1,"Xanomeline Low Dose","TRANSDERMAL",3,"WHITE",5,"HISPANIC OR LATINO",1,"PATCH",3,"USA",235,"United States of America",157.48,71.67,18,16,5.13,88.4,28.8992513468898,2.62466666666667,70.8268235294118,66.1375304520839,317
"CDISCPILOT01","01-705-1031",0,0.08,0.0833333333333333,0.0833333333333333,0.08,54,54,"XAN",0.01,2,"N",0,NA,0.0940393676288754,0.0940393676288754,-2.36404177982378,0,"ug/ml","2013-11-27T00:05:00",0,0,3,"Pharmacokinetic concentration of Xanomeline",1,"XANOMELINE",1,1,"705",705,1031,"1031",1031,56,"F",2,1,"Xanomeline Low Dose","TRANSDERMAL",3,"WHITE",5,"HISPANIC OR LATINO",1,"PATCH",3,"USA",235,"United States of America",157.48,71.67,18,16,5.13,88.4,28.8992513468898,2.62466666666667,70.8268235294118,66.1375304520839,318
"CDISCPILOT01","01-705-1031",0,0.5,0.5,0.5,0.5,54,54,"XAN",0.01,2,"N",0,NA,0.512235192166265,0.512235192166265,-0.668971399716262,0,"ug/ml","2013-11-27T00:30:00",0,0,4,"Pharmacokinetic concentration of Xanomeline",1,"XANOMELINE",1,1,"705",705,1031,"1031",1031,56,"F",2,1,"Xanomeline Low Dose","TRANSDERMAL",3,"WHITE",5,"HISPANIC OR LATINO",1,"PATCH",3,"USA",235,"United States of America",157.48,71.67,18,16,5.13,88.4,28.8992513468898,2.62466666666667,70.8268235294118,66.1375304520839,319
"CDISCPILOT01","01-705-1031",0,1,1,1,1,54,54,"XAN",0.01,2,"N",0,NA,0.877386927733925,0.877386927733925,-0.130807189228206,0,"ug/ml","2013-11-27T01:00:00",0,0,5,"Pharmacokinetic concentration of Xanomeline",1,"XANOMELINE",1,1,"705",705,1031,"1031",1031,56,"F",2,1,"Xanomeline Low Dose","TRANSDERMAL",3,"WHITE",5,"HISPANIC OR LATINO",1,"PATCH",3,"USA",235,"United States of America",157.48,71.67,18,16,5.13,88.4,28.8992513468898,2.62466666666667,70.8268235294118,66.1375304520839,320
"CDISCPILOT01","01-705-1031",0,1.5,1.5,1.5,1.5,54,54,"XAN",0.01,2,"N",0,NA,1.13768882035515,1.13768882035515,0.128998853983784,0,"ug/ml","2013-11-27T01:30:00",0,0,6,"Pharmacokinetic concentration of Xanomeline",1,"XANOMELINE",1,1,"705",705,1031,"1031",1031,56,"F",2,1,"Xanomeline Low Dose","TRANSDERMAL",3,"WHITE",5,"HISPANIC OR LATINO",1,"PATCH",3,"USA",235,"United States of America",157.48,71.67,18,16,5.13,88.4,28.8992513468898,2.62466666666667,70.8268235294118,66.1375304520839,321
"CDISCPILOT01","01-705-1031",0,2,2,2,2,54,54,"XAN",0.01,2,"N",0,NA,1.32324750377988,1.32324750377988,0.280088945322954,0,"ug/ml","2013-11-27T02:00:00",0,0,7,"Pharmacokinetic concentration of Xanomeline",1,"XANOMELINE",1,1,"705",705,1031,"1031",1031,56,"F",2,1,"Xanomeline Low Dose","TRANSDERMAL",3,"WHITE",5,"HISPANIC OR LATINO",1,"PATCH",3,"USA",235,"United States of America",157.48,71.67,18,16,5.13,88.4,28.8992513468898,2.62466666666667,70.8268235294118,66.1375304520839,322
"CDISCPILOT01","01-705-1031",0,4,4,4,4,54,54,"XAN",0.01,2,"N",0,NA,1.66495689124363,1.66495689124363,0.509799231952257,0,"ug/ml","2013-11-27T04:00:00",0,0,8,"Pharmacokinetic concentration of Xanomeline",1,"XANOMELINE",1,1,"705",705,1031,"1031",1031,56,"F",2,1,"Xanomeline Low Dose","TRANSDERMAL",3,"WHITE",5,"HISPANIC OR LATINO",1,"PATCH",3,"USA",235,"United States of America",157.48,71.67,18,16,5.13,88.4,28.8992513468898,2.62466666666667,70.8268235294118,66.1375304520839,323
"CDISCPILOT01","01-705-1031",0,6,6,6,6,54,54,"XAN",0.01,2,"N",0,NA,1.75319836167702,1.75319836167702,0.561441755086275,0,"ug/ml","2013-11-27T06:00:00",0,0,9,"Pharmacokinetic concentration of Xanomeline",1,"XANOMELINE",1,1,"705",705,1031,"1031",1031,56,"F",2,1,"Xanomeline Low Dose","TRANSDERMAL",3,"WHITE",5,"HISPANIC OR LATINO",1,"PATCH",3,"USA",235,"United States of America",157.48,71.67,18,16,5.13,88.4,28.8992513468898,2.62466666666667,70.8268235294118,66.1375304520839,324
"CDISCPILOT01","01-705-1031",0,3,6,6,3,54,54,"XAN",0.01,3,"N",0,NA,27.8465577499957,27.8465577499957,3.32670935909314,0,"ug/ml","2013-11-27T06:00:00",0,0,10,"Pharmacokinetic concentration of Xanomeline",1,"XANOMELINE",1,1,"705",705,1031,"1031",1031,56,"F",2,1,"Xanomeline Low Dose","TRANSDERMAL",3,"WHITE",5,"HISPANIC OR LATINO",1,"PATCH",3,"USA",235,"United States of America",157.48,71.67,18,16,5.13,88.4,28.8992513468898,2.62466666666667,70.8268235294118,66.1375304520839,325
"CDISCPILOT01","01-705-1031",0,8,8,8,8,54,54,"XAN",0.01,2,"N",0,NA,1.77598543569345,1.77598543569345,0.574355443913297,0,"ug/ml","2013-11-27T08:00:00",0,0,11,"Pharmacokinetic concentration of Xanomeline",1,"XANOMELINE",1,1,"705",705,1031,"1031",1031,56,"F",2,1,"Xanomeline Low Dose","TRANSDERMAL",3,"WHITE",5,"HISPANIC OR LATINO",1,"PATCH",3,"USA",235,"United States of America",157.48,71.67,18,16,5.13,88.4,28.8992513468898,2.62466666666667,70.8268235294118,66.1375304520839,326
"CDISCPILOT01","01-705-1031",0,12,12,12,12,54,54,"XAN",0.01,2,"N",0,NA,0.550491279873661,0.550491279873661,-0.596944163319684,0,"ug/ml","2013-11-27T12:00:00",0,0,12,"Pharmacokinetic concentration of Xanomeline",1,"XANOMELINE",1,1,"705",705,1031,"1031",1031,56,"F",2,1,"Xanomeline Low Dose","TRANSDERMAL",3,"WHITE",5,"HISPANIC OR LATINO",1,"PATCH",3,"USA",235,"United States of America",157.48,71.67,18,16,5.13,88.4,28.8992513468898,2.62466666666667,70.8268235294118,66.1375304520839,327
"CDISCPILOT01","01-705-1031",0,9,12,12,9,54,54,"XAN",0.01,3,"N",0,NA,23.7849069717822,23.7849069717822,3.1690512186629,0,"ug/ml","2013-11-27T12:00:00",0,0,13,"Pharmacokinetic concentration of Xanomeline",1,"XANOMELINE",1,1,"705",705,1031,"1031",1031,56,"F",2,1,"Xanomeline Low Dose","TRANSDERMAL",3,"WHITE",5,"HISPANIC OR LATINO",1,"PATCH",3,"USA",235,"United States of America",157.48,71.67,18,16,5.13,88.4,28.8992513468898,2.62466666666667,70.8268235294118,66.1375304520839,328
"CDISCPILOT01","01-705-1031",0,16,16,16,16,54,54,"XAN",0.01,2,"N",0,NA,0.169873599890084,0.169873599890084,-1.77270064854577,0,"ug/ml","2013-11-27T16:00:00",0,0,14,"Pharmacokinetic concentration of Xanomeline",1,"XANOMELINE",1,1,"705",705,1031,"1031",1031,56,"F",2,1,"Xanomeline Low Dose","TRANSDERMAL",3,"WHITE",5,"HISPANIC OR LATINO",1,"PATCH",3,"USA",235,"United States of America",157.48,71.67,18,16,5.13,88.4,28.8992513468898,2.62466666666667,70.8268235294118,66.1375304520839,329
"CDISCPILOT01","01-705-1031",0,24,24,24,24,54,54,"XAN",0.01,2,"N",0,NA,0.0161762102522599,0.0161762102522599,-4.12421361899794,0,"ug/ml","2013-11-28T00:00:00",0,0,15,"Pharmacokinetic concentration of Xanomeline",1,"XANOMELINE",1,1,"705",705,1031,"1031",1031,56,"F",2,1,"Xanomeline Low Dose","TRANSDERMAL",3,"WHITE",5,"HISPANIC OR LATINO",1,"PATCH",3,"USA",235,"United States of America",157.48,71.67,18,16,5.13,88.4,28.8992513468898,2.62466666666667,70.8268235294118,66.1375304520839,330
"CDISCPILOT01","01-705-1031",0,18,24,24,18,54,54,"XAN",0.01,3,"N",0,NA,15.6616054153551,15.6616054153551,2.75121220225293,0,"ug/ml","2013-11-28T00:00:00",0,0,16,"Pharmacokinetic concentration of Xanomeline",1,"XANOMELINE",1,1,"705",705,1031,"1031",1031,56,"F",2,1,"Xanomeline Low Dose","TRANSDERMAL",3,"WHITE",5,"HISPANIC OR LATINO",1,"PATCH",3,"USA",235,"United States of America",157.48,71.67,18,16,5.13,88.4,28.8992513468898,2.62466666666667,70.8268235294118,66.1375304520839,331
"CDISCPILOT01","01-705-1031",1,24,24,0,0,54,54,"DOSE",NA,1,"N",0,54,NA,NA,NA,1,NA,"2013-11-28T00:00:00",1,1,17,"Xanomeline Patch Dose",2,"XANOMELINE",1,1,"705",705,1031,"1031",1031,56,"F",2,1,"Xanomeline Low Dose","TRANSDERMAL",3,"WHITE",5,"HISPANIC OR LATINO",1,"PATCH",3,"USA",235,"United States of America",157.48,71.67,18,16,5.13,88.4,28.8992513468898,2.62466666666667,70.8268235294118,66.1375304520839,332
"CDISCPILOT01","01-705-1031",0,36,36,12,12,54,54,"XAN",0.01,2,"Y",1,NA,NA,NA,NA,1,"ug/ml","2013-11-28T12:00:00",0,0,18,"Pharmacokinetic concentration of Xanomeline",1,"XANOMELINE",1,1,"705",705,1031,"1031",1031,56,"F",2,1,"Xanomeline Low Dose","TRANSDERMAL",3,"WHITE",5,"HISPANIC OR LATINO",1,"PATCH",3,"USA",235,"United States of America",157.48,71.67,18,16,5.13,88.4,28.8992513468898,2.62466666666667,70.8268235294118,66.1375304520839,333
"CDISCPILOT01","01-705-1031",0,48,48,24,24,54,54,"XAN",0.01,2,"Y",1,NA,NA,NA,NA,1,"ug/ml","2013-11-29T00:00:00",0,0,19,"Pharmacokinetic concentration of Xanomeline",1,"XANOMELINE",1,1,"705",705,1031,"1031",1031,56,"F",2,1,"Xanomeline Low Dose","TRANSDERMAL",3,"WHITE",5,"HISPANIC OR LATINO",1,"PATCH",3,"USA",235,"United States of America",157.48,71.67,18,16,5.13,88.4,28.8992513468898,2.62466666666667,70.8268235294118,66.1375304520839,334
"CDISCPILOT01","01-705-1031",0,37,48,24,13,54,54,"XAN",0.01,3,"Y",1,NA,NA,NA,NA,1,"ug/ml","2013-11-29T00:00:00",0,0,20,"Pharmacokinetic concentration of Xanomeline",1,"XANOMELINE",1,1,"705",705,1031,"1031",1031,56,"F",2,1,"Xanomeline Low Dose","TRANSDERMAL",3,"WHITE",5,"HISPANIC OR LATINO",1,"PATCH",3,"USA",235,"United States of America",157.48,71.67,18,16,5.13,88.4,28.8992513468898,2.62466666666667,70.8268235294118,66.1375304520839,335
"CDISCPILOT01","01-705-1031",1,48,48,0,0,54,54,"DOSE",NA,1,"N",0,54,NA,NA,NA,1,NA,"2013-11-29T00:00:00",1,1,21,"Xanomeline Patch Dose",2,"XANOMELINE",1,1,"705",705,1031,"1031",1031,56,"F",2,1,"Xanomeline Low Dose","TRANSDERMAL",3,"WHITE",5,"HISPANIC OR LATINO",1,"PATCH",3,"USA",235,"United States of America",157.48,71.67,18,16,5.13,88.4,28.8992513468898,2.62466666666667,70.8268235294118,66.1375304520839,336
"CDISCPILOT01","01-708-1032",0,0,-0.5,-0.5,0,54,54,"XAN",0.01,2,"Y",1,NA,0,0,NA,0,"ug/ml","2013-02-08T23:30:00",0,0,1,"Pharmacokinetic concentration of Xanomeline",1,"XANOMELINE",1,1,"708",708,1032,"1032",1032,62,"M",1,1,"Xanomeline Low Dose","TRANSDERMAL",3,"WHITE",5,"NOT HISPANIC OR LATINO",2,"PATCH",3,"USA",235,"United States of America",177.8,82.56,20,24,22.23,114.92,26.1159705992881,2.96333333333333,68.9245248868778,62.1302007683144,337
"CDISCPILOT01","01-708-1032",1,0,0,0,0,54,54,"DOSE",NA,1,"N",0,54,NA,NA,NA,1,NA,"2013-02-09T00:00:00",1,1,2,"Xanomeline Patch Dose",2,"XANOMELINE",1,1,"708",708,1032,"1032",1032,62,"M",1,1,"Xanomeline Low Dose","TRANSDERMAL",3,"WHITE",5,"NOT HISPANIC OR LATINO",2,"PATCH",3,"USA",235,"United States of America",177.8,82.56,20,24,22.23,114.92,26.1159705992881,2.96333333333333,68.9245248868778,62.1302007683144,338
"CDISCPILOT01","01-708-1032",0,0.08,0.0833333333333333,0.0833333333333333,0.08,54,54,"XAN",0.01,2,"N",0,NA,0.0918517611942817,0.0918517611942817,-2.38757929282566,0,"ug/ml","2013-02-09T00:05:00",0,0,3,"Pharmacokinetic concentration of Xanomeline",1,"XANOMELINE",1,1,"708",708,1032,"1032",1032,62,"M",1,1,"Xanomeline Low Dose","TRANSDERMAL",3,"WHITE",5,"NOT HISPANIC OR LATINO",2,"PATCH",3,"USA",235,"United States of America",177.8,82.56,20,24,22.23,114.92,26.1159705992881,2.96333333333333,68.9245248868778,62.1302007683144,339
"CDISCPILOT01","01-708-1032",0,0.5,0.5,0.5,0.5,54,54,"XAN",0.01,2,"N",0,NA,0.501968681411133,0.501968681411133,-0.689217548863822,0,"ug/ml","2013-02-09T00:30:00",0,0,4,"Pharmacokinetic concentration of Xanomeline",1,"XANOMELINE",1,1,"708",708,1032,"1032",1032,62,"M",1,1,"Xanomeline Low Dose","TRANSDERMAL",3,"WHITE",5,"NOT HISPANIC OR LATINO",2,"PATCH",3,"USA",235,"United States of America",177.8,82.56,20,24,22.23,114.92,26.1159705992881,2.96333333333333,68.9245248868778,62.1302007683144,340
"CDISCPILOT01","01-708-1032",0,1,1,1,1,54,54,"XAN",0.01,2,"N",0,NA,0.862811971615559,0.862811971615559,-0.147558489255609,0,"ug/ml","2013-02-09T01:00:00",0,0,5,"Pharmacokinetic concentration of Xanomeline",1,"XANOMELINE",1,1,"708",708,1032,"1032",1032,62,"M",1,1,"Xanomeline Low Dose","TRANSDERMAL",3,"WHITE",5,"NOT HISPANIC OR LATINO",2,"PATCH",3,"USA",235,"United States of America",177.8,82.56,20,24,22.23,114.92,26.1159705992881,2.96333333333333,68.9245248868778,62.1302007683144,341
"CDISCPILOT01","01-708-1032",0,1.5,1.5,1.5,1.5,54,54,"XAN",0.01,2,"N",0,NA,1.12220640180096,1.12220640180096,0.115296749006537,0,"ug/ml","2013-02-09T01:30:00",0,0,6,"Pharmacokinetic concentration of Xanomeline",1,"XANOMELINE",1,1,"708",708,1032,"1032",1032,62,"M",1,1,"Xanomeline Low Dose","TRANSDERMAL",3,"WHITE",5,"NOT HISPANIC OR LATINO",2,"PATCH",3,"USA",235,"United States of America",177.8,82.56,20,24,22.23,114.92,26.1159705992881,2.96333333333333,68.9245248868778,62.1302007683144,342
"CDISCPILOT01","01-708-1032",0,2,2,2,2,54,54,"XAN",0.01,2,"N",0,NA,1.30867369172365,1.30867369172365,0.269014175274386,0,"ug/ml","2013-02-09T02:00:00",0,0,7,"Pharmacokinetic concentration of Xanomeline",1,"XANOMELINE",1,1,"708",708,1032,"1032",1032,62,"M",1,1,"Xanomeline Low Dose","TRANSDERMAL",3,"WHITE",5,"NOT HISPANIC OR LATINO",2,"PATCH",3,"USA",235,"United States of America",177.8,82.56,20,24,22.23,114.92,26.1159705992881,2.96333333333333,68.9245248868778,62.1302007683144,343
"CDISCPILOT01","01-708-1032",0,4,4,4,4,54,54,"XAN",0.01,2,"N",0,NA,1.65813525995819,1.65813525995819,0.505693633577535,0,"ug/ml","2013-02-09T04:00:00",0,0,8,"Pharmacokinetic concentration of Xanomeline",1,"XANOMELINE",1,1,"708",708,1032,"1032",1032,62,"M",1,1,"Xanomeline Low Dose","TRANSDERMAL",3,"WHITE",5,"NOT HISPANIC OR LATINO",2,"PATCH",3,"USA",235,"United States of America",177.8,82.56,20,24,22.23,114.92,26.1159705992881,2.96333333333333,68.9245248868778,62.1302007683144,344
"CDISCPILOT01","01-708-1032",0,6,6,6,6,54,54,"XAN",0.01,2,"N",0,NA,1.75145370018152,1.75145370018152,0.560446128924918,0,"ug/ml","2013-02-09T06:00:00",0,0,9,"Pharmacokinetic concentration of Xanomeline",1,"XANOMELINE",1,1,"708",708,1032,"1032",1032,62,"M",1,1,"Xanomeline Low Dose","TRANSDERMAL",3,"WHITE",5,"NOT HISPANIC OR LATINO",2,"PATCH",3,"USA",235,"United States of America",177.8,82.56,20,24,22.23,114.92,26.1159705992881,2.96333333333333,68.9245248868778,62.1302007683144,345
"CDISCPILOT01","01-708-1032",0,3,6,6,3,54,54,"XAN",0.01,3,"N",0,NA,28.7568289358484,28.7568289358484,3.35887526724143,0,"ug/ml","2013-02-09T06:00:00",0,0,10,"Pharmacokinetic concentration of Xanomeline",1,"XANOMELINE",1,1,"708",708,1032,"1032",1032,62,"M",1,1,"Xanomeline Low Dose","TRANSDERMAL",3,"WHITE",5,"NOT HISPANIC OR LATINO",2,"PATCH",3,"USA",235,"United States of America",177.8,82.56,20,24,22.23,114.92,26.1159705992881,2.96333333333333,68.9245248868778,62.1302007683144,346
"CDISCPILOT01","01-708-1032",0,8,8,8,8,54,54,"XAN",0.01,2,"N",0,NA,1.77637298194892,1.77637298194892,0.574573634879095,0,"ug/ml","2013-02-09T08:00:00",0,0,11,"Pharmacokinetic concentration of Xanomeline",1,"XANOMELINE",1,1,"708",708,1032,"1032",1032,62,"M",1,1,"Xanomeline Low Dose","TRANSDERMAL",3,"WHITE",5,"NOT HISPANIC OR LATINO",2,"PATCH",3,"USA",235,"United States of America",177.8,82.56,20,24,22.23,114.92,26.1159705992881,2.96333333333333,68.9245248868778,62.1302007683144,347
"CDISCPILOT01","01-708-1032",0,12,12,12,12,54,54,"XAN",0.01,2,"N",0,NA,0.567232562767373,0.567232562767373,-0.566985895737597,0,"ug/ml","2013-02-09T12:00:00",0,0,12,"Pharmacokinetic concentration of Xanomeline",1,"XANOMELINE",1,1,"708",708,1032,"1032",1032,62,"M",1,1,"Xanomeline Low Dose","TRANSDERMAL",3,"WHITE",5,"NOT HISPANIC OR LATINO",2,"PATCH",3,"USA",235,"United States of America",177.8,82.56,20,24,22.23,114.92,26.1159705992881,2.96333333333333,68.9245248868778,62.1302007683144,348
"CDISCPILOT01","01-708-1032",0,9,12,12,9,54,54,"XAN",0.01,3,"N",0,NA,24.7957013535629,24.7957013535629,3.21067030562949,0,"ug/ml","2013-02-09T12:00:00",0,0,13,"Pharmacokinetic concentration of Xanomeline",1,"XANOMELINE",1,1,"708",708,1032,"1032",1032,62,"M",1,1,"Xanomeline Low Dose","TRANSDERMAL",3,"WHITE",5,"NOT HISPANIC OR LATINO",2,"PATCH",3,"USA",235,"United States of America",177.8,82.56,20,24,22.23,114.92,26.1159705992881,2.96333333333333,68.9245248868778,62.1302007683144,349
"CDISCPILOT01","01-708-1032",0,16,16,16,16,54,54,"XAN",0.01,2,"N",0,NA,0.180208065140022,0.180208065140022,-1.71364317820555,0,"ug/ml","2013-02-09T16:00:00",0,0,14,"Pharmacokinetic concentration of Xanomeline",1,"XANOMELINE",1,1,"708",708,1032,"1032",1032,62,"M",1,1,"Xanomeline Low Dose","TRANSDERMAL",3,"WHITE",5,"NOT HISPANIC OR LATINO",2,"PATCH",3,"USA",235,"United States of America",177.8,82.56,20,24,22.23,114.92,26.1159705992881,2.96333333333333,68.9245248868778,62.1302007683144,350
"CDISCPILOT01","01-708-1032",0,24,24,24,24,54,54,"XAN",0.01,2,"N",0,NA,0.0181886456832402,0.0181886456832402,-4.00695774314146,0,"ug/ml","2013-02-10T00:00:00",0,0,15,"Pharmacokinetic concentration of Xanomeline",1,"XANOMELINE",1,1,"708",708,1032,"1032",1032,62,"M",1,1,"Xanomeline Low Dose","TRANSDERMAL",3,"WHITE",5,"NOT HISPANIC OR LATINO",2,"PATCH",3,"USA",235,"United States of America",177.8,82.56,20,24,22.23,114.92,26.1159705992881,2.96333333333333,68.9245248868778,62.1302007683144,351
"CDISCPILOT01","01-708-1032",0,18,24,24,18,54,54,"XAN",0.01,3,"N",0,NA,16.8734461889918,16.8734461889918,2.82574115482981,0,"ug/ml","2013-02-10T00:00:00",0,0,16,"Pharmacokinetic concentration of Xanomeline",1,"XANOMELINE",1,1,"708",708,1032,"1032",1032,62,"M",1,1,"Xanomeline Low Dose","TRANSDERMAL",3,"WHITE",5,"NOT HISPANIC OR LATINO",2,"PATCH",3,"USA",235,"United States of America",177.8,82.56,20,24,22.23,114.92,26.1159705992881,2.96333333333333,68.9245248868778,62.1302007683144,352
"CDISCPILOT01","01-708-1032",1,24,24,0,0,54,54,"DOSE",NA,1,"N",0,54,NA,NA,NA,1,NA,"2013-02-10T00:00:00",1,1,17,"Xanomeline Patch Dose",2,"XANOMELINE",1,1,"708",708,1032,"1032",1032,62,"M",1,1,"Xanomeline Low Dose","TRANSDERMAL",3,"WHITE",5,"NOT HISPANIC OR LATINO",2,"PATCH",3,"USA",235,"United States of America",177.8,82.56,20,24,22.23,114.92,26.1159705992881,2.96333333333333,68.9245248868778,62.1302007683144,353
"CDISCPILOT01","01-708-1032",0,36,36,12,12,54,54,"XAN",0.01,2,"Y",1,NA,NA,NA,NA,1,"ug/ml","2013-02-10T12:00:00",0,0,18,"Pharmacokinetic concentration of Xanomeline",1,"XANOMELINE",1,1,"708",708,1032,"1032",1032,62,"M",1,1,"Xanomeline Low Dose","TRANSDERMAL",3,"WHITE",5,"NOT HISPANIC OR LATINO",2,"PATCH",3,"USA",235,"United States of America",177.8,82.56,20,24,22.23,114.92,26.1159705992881,2.96333333333333,68.9245248868778,62.1302007683144,354
"CDISCPILOT01","01-708-1032",0,48,48,24,24,54,54,"XAN",0.01,2,"Y",1,NA,NA,NA,NA,1,"ug/ml","2013-02-11T00:00:00",0,0,19,"Pharmacokinetic concentration of Xanomeline",1,"XANOMELINE",1,1,"708",708,1032,"1032",1032,62,"M",1,1,"Xanomeline Low Dose","TRANSDERMAL",3,"WHITE",5,"NOT HISPANIC OR LATINO",2,"PATCH",3,"USA",235,"United States of America",177.8,82.56,20,24,22.23,114.92,26.1159705992881,2.96333333333333,68.9245248868778,62.1302007683144,355
"CDISCPILOT01","01-708-1032",0,37,48,24,13,54,54,"XAN",0.01,3,"N",0,NA,1.02893585984958,1.02893585984958,0.0285251224014631,0,"ug/ml","2013-02-11T00:00:00",0,0,20,"Pharmacokinetic concentration of Xanomeline",1,"XANOMELINE",1,1,"708",708,1032,"1032",1032,62,"M",1,1,"Xanomeline Low Dose","TRANSDERMAL",3,"WHITE",5,"NOT HISPANIC OR LATINO",2,"PATCH",3,"USA",235,"United States of America",177.8,82.56,20,24,22.23,114.92,26.1159705992881,2.96333333333333,68.9245248868778,62.1302007683144,356
"CDISCPILOT01","01-708-1032",1,48,48,0,0,54,54,"DOSE",NA,1,"N",0,54,NA,NA,NA,1,NA,"2013-02-11T00:00:00",1,1,21,"Xanomeline Patch Dose",2,"XANOMELINE",1,1,"708",708,1032,"1032",1032,62,"M",1,1,"Xanomeline Low Dose","TRANSDERMAL",3,"WHITE",5,"NOT HISPANIC OR LATINO",2,"PATCH",3,"USA",235,"United States of America",177.8,82.56,20,24,22.23,114.92,26.1159705992881,2.96333333333333,68.9245248868778,62.1302007683144,357
"CDISCPILOT01","01-701-1033",0,0,-0.5,-0.5,0,54,54,"XAN",0.01,2,"Y",1,NA,0,0,NA,0,"ug/ml","2014-03-17T23:30:00",0,0,1,"Pharmacokinetic concentration of Xanomeline",1,"XANOMELINE",1,1,"701",701,1033,"1033",1033,74,"M",1,1,"Xanomeline Low Dose","TRANSDERMAL",3,"WHITE",5,"NOT HISPANIC OR LATINO",2,"PATCH",3,"USA",235,"United States of America",175.26,88.45,16,20,13.68,132.6,28.7960038217913,2.921,54.1506108597285,48.5638576919488,358
"CDISCPILOT01","01-701-1033",1,0,0,0,0,54,54,"DOSE",NA,1,"N",0,54,NA,NA,NA,1,NA,"2014-03-18T00:00:00",1,1,2,"Xanomeline Patch Dose",2,"XANOMELINE",1,1,"701",701,1033,"1033",1033,74,"M",1,1,"Xanomeline Low Dose","TRANSDERMAL",3,"WHITE",5,"NOT HISPANIC OR LATINO",2,"PATCH",3,"USA",235,"United States of America",175.26,88.45,16,20,13.68,132.6,28.7960038217913,2.921,54.1506108597285,48.5638576919488,359
"CDISCPILOT01","01-701-1033",0,0.08,0.0833333333333333,0.0833333333333333,0.08,54,54,"XAN",0.01,2,"N",0,NA,0.100525498178961,0.100525498178961,-2.29734387043928,0,"ug/ml","2014-03-18T00:05:00",0,0,3,"Pharmacokinetic concentration of Xanomeline",1,"XANOMELINE",1,1,"701",701,1033,"1033",1033,74,"M",1,1,"Xanomeline Low Dose","TRANSDERMAL",3,"WHITE",5,"NOT HISPANIC OR LATINO",2,"PATCH",3,"USA",235,"United States of America",175.26,88.45,16,20,13.68,132.6,28.7960038217913,2.921,54.1506108597285,48.5638576919488,360
"CDISCPILOT01","01-701-1033",0,0.5,0.5,0.5,0.5,54,54,"XAN",0.01,2,"N",0,NA,0.547963037065304,0.547963037065304,-0.601547444919776,0,"ug/ml","2014-03-18T00:30:00",0,0,4,"Pharmacokinetic concentration of Xanomeline",1,"XANOMELINE",1,1,"701",701,1033,"1033",1033,74,"M",1,1,"Xanomeline Low Dose","TRANSDERMAL",3,"WHITE",5,"NOT HISPANIC OR LATINO",2,"PATCH",3,"USA",235,"United States of America",175.26,88.45,16,20,13.68,132.6,28.7960038217913,2.921,54.1506108597285,48.5638576919488,361
"CDISCPILOT01","01-701-1033",0,1,1,1,1,54,54,"XAN",0.01,2,"N",0,NA,0.939306678548877,0.939306678548877,-0.0626132518729329,0,"ug/ml","2014-03-18T01:00:00",0,0,5,"Pharmacokinetic concentration of Xanomeline",1,"XANOMELINE",1,1,"701",701,1033,"1033",1033,74,"M",1,1,"Xanomeline Low Dose","TRANSDERMAL",3,"WHITE",5,"NOT HISPANIC OR LATINO",2,"PATCH",3,"USA",235,"United States of America",175.26,88.45,16,20,13.68,132.6,28.7960038217913,2.921,54.1506108597285,48.5638576919488,362
"CDISCPILOT01","01-701-1033",0,1.5,1.5,1.5,1.5,54,54,"XAN",0.01,2,"N",0,NA,1.21879605168222,1.21879605168222,0.197863528611713,0,"ug/ml","2014-03-18T01:30:00",0,0,6,"Pharmacokinetic concentration of Xanomeline",1,"XANOMELINE",1,1,"701",701,1033,"1033",1033,74,"M",1,1,"Xanomeline Low Dose","TRANSDERMAL",3,"WHITE",5,"NOT HISPANIC OR LATINO",2,"PATCH",3,"USA",235,"United States of America",175.26,88.45,16,20,13.68,132.6,28.7960038217913,2.921,54.1506108597285,48.5638576919488,363
"CDISCPILOT01","01-701-1033",0,2,2,2,2,54,54,"XAN",0.01,2,"N",0,NA,1.41840146598853,1.41840146598853,0.349530509328178,0,"ug/ml","2014-03-18T02:00:00",0,0,7,"Pharmacokinetic concentration of Xanomeline",1,"XANOMELINE",1,1,"701",701,1033,"1033",1033,74,"M",1,1,"Xanomeline Low Dose","TRANSDERMAL",3,"WHITE",5,"NOT HISPANIC OR LATINO",2,"PATCH",3,"USA",235,"United States of America",175.26,88.45,16,20,13.68,132.6,28.7960038217913,2.921,54.1506108597285,48.5638576919488,364
"CDISCPILOT01","01-701-1033",0,4,4,4,4,54,54,"XAN",0.01,2,"N",0,NA,1.78740221059809,1.78740221059809,0.580763286731814,0,"ug/ml","2014-03-18T04:00:00",0,0,8,"Pharmacokinetic concentration of Xanomeline",1,"XANOMELINE",1,1,"701",701,1033,"1033",1033,74,"M",1,1,"Xanomeline Low Dose","TRANSDERMAL",3,"WHITE",5,"NOT HISPANIC OR LATINO",2,"PATCH",3,"USA",235,"United States of America",175.26,88.45,16,20,13.68,132.6,28.7960038217913,2.921,54.1506108597285,48.5638576919488,365
"CDISCPILOT01","01-701-1033",0,6,6,6,6,54,54,"XAN",0.01,2,"N",0,NA,1.8833986916984,1.8833986916984,0.633077959444759,0,"ug/ml","2014-03-18T06:00:00",0,0,9,"Pharmacokinetic concentration of Xanomeline",1,"XANOMELINE",1,1,"701",701,1033,"1033",1033,74,"M",1,1,"Xanomeline Low Dose","TRANSDERMAL",3,"WHITE",5,"NOT HISPANIC OR LATINO",2,"PATCH",3,"USA",235,"United States of America",175.26,88.45,16,20,13.68,132.6,28.7960038217913,2.921,54.1506108597285,48.5638576919488,366
"CDISCPILOT01","01-701-1033",0,3,6,6,3,54,54,"XAN",0.01,3,"N",0,NA,28.0440239764719,28.0440239764719,3.33377556030342,0,"ug/ml","2014-03-18T06:00:00",0,0,10,"Pharmacokinetic concentration of Xanomeline",1,"XANOMELINE",1,1,"701",701,1033,"1033",1033,74,"M",1,1,"Xanomeline Low Dose","TRANSDERMAL",3,"WHITE",5,"NOT HISPANIC OR LATINO",2,"PATCH",3,"USA",235,"United States of America",175.26,88.45,16,20,13.68,132.6,28.7960038217913,2.921,54.1506108597285,48.5638576919488,367
"CDISCPILOT01","01-701-1033",0,8,8,8,8,54,54,"XAN",0.01,2,"N",0,NA,1.90837242012107,1.90837242012107,0.646250742721949,0,"ug/ml","2014-03-18T08:00:00",0,0,11,"Pharmacokinetic concentration of Xanomeline",1,"XANOMELINE",1,1,"701",701,1033,"1033",1033,74,"M",1,1,"Xanomeline Low Dose","TRANSDERMAL",3,"WHITE",5,"NOT HISPANIC OR LATINO",2,"PATCH",3,"USA",235,"United States of America",175.26,88.45,16,20,13.68,132.6,28.7960038217913,2.921,54.1506108597285,48.5638576919488,368
"CDISCPILOT01","01-701-1033",0,12,12,12,12,54,54,"XAN",0.01,2,"N",0,NA,0.595418121736485,0.595418121736485,-0.518491394624996,0,"ug/ml","2014-03-18T12:00:00",0,0,12,"Pharmacokinetic concentration of Xanomeline",1,"XANOMELINE",1,1,"701",701,1033,"1033",1033,74,"M",1,1,"Xanomeline Low Dose","TRANSDERMAL",3,"WHITE",5,"NOT HISPANIC OR LATINO",2,"PATCH",3,"USA",235,"United States of America",175.26,88.45,16,20,13.68,132.6,28.7960038217913,2.921,54.1506108597285,48.5638576919488,369
"CDISCPILOT01","01-701-1033",0,9,12,12,9,54,54,"XAN",0.01,3,"N",0,NA,24.0045625973928,24.0045625973928,3.17824392050437,0,"ug/ml","2014-03-18T12:00:00",0,0,13,"Pharmacokinetic concentration of Xanomeline",1,"XANOMELINE",1,1,"701",701,1033,"1033",1033,74,"M",1,1,"Xanomeline Low Dose","TRANSDERMAL",3,"WHITE",5,"NOT HISPANIC OR LATINO",2,"PATCH",3,"USA",235,"United States of America",175.26,88.45,16,20,13.68,132.6,28.7960038217913,2.921,54.1506108597285,48.5638576919488,370
"CDISCPILOT01","01-701-1033",0,16,16,16,16,54,54,"XAN",0.01,2,"N",0,NA,0.184921374265158,0.184921374265158,-1.68782454821572,0,"ug/ml","2014-03-18T16:00:00",0,0,14,"Pharmacokinetic concentration of Xanomeline",1,"XANOMELINE",1,1,"701",701,1033,"1033",1033,74,"M",1,1,"Xanomeline Low Dose","TRANSDERMAL",3,"WHITE",5,"NOT HISPANIC OR LATINO",2,"PATCH",3,"USA",235,"United States of America",175.26,88.45,16,20,13.68,132.6,28.7960038217913,2.921,54.1506108597285,48.5638576919488,371
"CDISCPILOT01","01-701-1033",0,24,24,24,24,54,54,"XAN",0.01,2,"N",0,NA,0.0178368122132096,0.0178368122132096,-4.02649085539716,0,"ug/ml","2014-03-19T00:00:00",0,0,15,"Pharmacokinetic concentration of Xanomeline",1,"XANOMELINE",1,1,"701",701,1033,"1033",1033,74,"M",1,1,"Xanomeline Low Dose","TRANSDERMAL",3,"WHITE",5,"NOT HISPANIC OR LATINO",2,"PATCH",3,"USA",235,"United States of America",175.26,88.45,16,20,13.68,132.6,28.7960038217913,2.921,54.1506108597285,48.5638576919488,372
"CDISCPILOT01","01-701-1033",0,18,24,24,18,54,54,"XAN",0.01,3,"N",0,NA,15.9256398392345,15.9256398392345,2.76793037893898,0,"ug/ml","2014-03-19T00:00:00",0,0,16,"Pharmacokinetic concentration of Xanomeline",1,"XANOMELINE",1,1,"701",701,1033,"1033",1033,74,"M",1,1,"Xanomeline Low Dose","TRANSDERMAL",3,"WHITE",5,"NOT HISPANIC OR LATINO",2,"PATCH",3,"USA",235,"United States of America",175.26,88.45,16,20,13.68,132.6,28.7960038217913,2.921,54.1506108597285,48.5638576919488,373
"CDISCPILOT01","01-701-1033",1,24,24,0,0,54,54,"DOSE",NA,1,"N",0,54,NA,NA,NA,1,NA,"2014-03-19T00:00:00",1,1,17,"Xanomeline Patch Dose",2,"XANOMELINE",1,1,"701",701,1033,"1033",1033,74,"M",1,1,"Xanomeline Low Dose","TRANSDERMAL",3,"WHITE",5,"NOT HISPANIC OR LATINO",2,"PATCH",3,"USA",235,"United States of America",175.26,88.45,16,20,13.68,132.6,28.7960038217913,2.921,54.1506108597285,48.5638576919488,374
"CDISCPILOT01","01-701-1033",0,36,36,12,12,54,54,"XAN",0.01,2,"Y",1,NA,NA,NA,NA,1,"ug/ml","2014-03-19T12:00:00",0,0,18,"Pharmacokinetic concentration of Xanomeline",1,"XANOMELINE",1,1,"701",701,1033,"1033",1033,74,"M",1,1,"Xanomeline Low Dose","TRANSDERMAL",3,"WHITE",5,"NOT HISPANIC OR LATINO",2,"PATCH",3,"USA",235,"United States of America",175.26,88.45,16,20,13.68,132.6,28.7960038217913,2.921,54.1506108597285,48.5638576919488,375
"CDISCPILOT01","01-701-1033",0,48,48,24,24,54,54,"XAN",0.01,2,"Y",1,NA,NA,NA,NA,1,"ug/ml","2014-03-20T00:00:00",0,0,19,"Pharmacokinetic concentration of Xanomeline",1,"XANOMELINE",1,1,"701",701,1033,"1033",1033,74,"M",1,1,"Xanomeline Low Dose","TRANSDERMAL",3,"WHITE",5,"NOT HISPANIC OR LATINO",2,"PATCH",3,"USA",235,"United States of America",175.26,88.45,16,20,13.68,132.6,28.7960038217913,2.921,54.1506108597285,48.5638576919488,376
"CDISCPILOT01","01-701-1033",0,37,48,24,13,54,54,"XAN",0.01,3,"Y",1,NA,NA,NA,NA,1,"ug/ml","2014-03-20T00:00:00",0,0,20,"Pharmacokinetic concentration of Xanomeline",1,"XANOMELINE",1,1,"701",701,1033,"1033",1033,74,"M",1,1,"Xanomeline Low Dose","TRANSDERMAL",3,"WHITE",5,"NOT HISPANIC OR LATINO",2,"PATCH",3,"USA",235,"United States of America",175.26,88.45,16,20,13.68,132.6,28.7960038217913,2.921,54.1506108597285,48.5638576919488,377
"CDISCPILOT01","01-701-1033",1,48,48,0,0,54,54,"DOSE",NA,1,"N",0,54,NA,NA,NA,1,NA,"2014-03-20T00:00:00",1,1,21,"Xanomeline Patch Dose",2,"XANOMELINE",1,1,"701",701,1033,"1033",1033,74,"M",1,1,"Xanomeline Low Dose","TRANSDERMAL",3,"WHITE",5,"NOT HISPANIC OR LATINO",2,"PATCH",3,"USA",235,"United States of America",175.26,88.45,16,20,13.68,132.6,28.7960038217913,2.921,54.1506108597285,48.5638576919488,378
"CDISCPILOT01","01-701-1034",0,0,-0.5,-0.5,0,54,81,"XAN",0.01,2,"Y",1,NA,0,0,NA,0,"ug/ml","2014-06-30T23:30:00",0,0,1,"Pharmacokinetic concentration of Xanomeline",1,"XANOMELINE",1,1,"701",701,1034,"1034",1034,77,"F",2,2,"Xanomeline High Dose","TRANSDERMAL",3,"WHITE",5,"NOT HISPANIC OR LATINO",2,"PATCH",3,"USA",235,"United States of America",154.94,62.6,15,23,10.26,88.4,26.0763757216845,2.58233333333333,46.3976470588235,58.0399213301922,379
"CDISCPILOT01","01-701-1034",1,0,0,0,0,54,81,"DOSE",NA,1,"N",0,54,NA,NA,NA,1,NA,"2014-07-01T00:00:00",1,1,2,"Xanomeline Patch Dose",2,"XANOMELINE",1,1,"701",701,1034,"1034",1034,77,"F",2,2,"Xanomeline High Dose","TRANSDERMAL",3,"WHITE",5,"NOT HISPANIC OR LATINO",2,"PATCH",3,"USA",235,"United States of America",154.94,62.6,15,23,10.26,88.4,26.0763757216845,2.58233333333333,46.3976470588235,58.0399213301922,380
"CDISCPILOT01","01-701-1034",0,0.08,0.0833333333333333,0.0833333333333333,0.08,54,81,"XAN",0.01,2,"N",0,NA,0.105029863593155,0.105029863593155,-2.25351055409004,0,"ug/ml","2014-07-01T00:05:00",0,0,3,"Pharmacokinetic concentration of Xanomeline",1,"XANOMELINE",1,1,"701",701,1034,"1034",1034,77,"F",2,2,"Xanomeline High Dose","TRANSDERMAL",3,"WHITE",5,"NOT HISPANIC OR LATINO",2,"PATCH",3,"USA",235,"United States of America",154.94,62.6,15,23,10.26,88.4,26.0763757216845,2.58233333333333,46.3976470588235,58.0399213301922,381
"CDISCPILOT01","01-701-1034",0,0.5,0.5,0.5,0.5,54,81,"XAN",0.01,2,"N",0,NA,0.568527191476215,0.568527191476215,-0.564706136722156,0,"ug/ml","2014-07-01T00:30:00",0,0,4,"Pharmacokinetic concentration of Xanomeline",1,"XANOMELINE",1,1,"701",701,1034,"1034",1034,77,"F",2,2,"Xanomeline High Dose","TRANSDERMAL",3,"WHITE",5,"NOT HISPANIC OR LATINO",2,"PATCH",3,"USA",235,"United States of America",154.94,62.6,15,23,10.26,88.4,26.0763757216845,2.58233333333333,46.3976470588235,58.0399213301922,382
"CDISCPILOT01","01-701-1034",0,1,1,1,1,54,81,"XAN",0.01,2,"N",0,NA,0.967379251905314,0.967379251905314,-0.0331646660991297,0,"ug/ml","2014-07-01T01:00:00",0,0,5,"Pharmacokinetic concentration of Xanomeline",1,"XANOMELINE",1,1,"701",701,1034,"1034",1034,77,"F",2,2,"Xanomeline High Dose","TRANSDERMAL",3,"WHITE",5,"NOT HISPANIC OR LATINO",2,"PATCH",3,"USA",235,"United States of America",154.94,62.6,15,23,10.26,88.4,26.0763757216845,2.58233333333333,46.3976470588235,58.0399213301922,383
"CDISCPILOT01","01-701-1034",0,1.5,1.5,1.5,1.5,54,81,"XAN",0.01,2,"N",0,NA,1.24719518418372,1.24719518418372,0.22089717745163,0,"ug/ml","2014-07-01T01:30:00",0,0,6,"Pharmacokinetic concentration of Xanomeline",1,"XANOMELINE",1,1,"701",701,1034,"1034",1034,77,"F",2,2,"Xanomeline High Dose","TRANSDERMAL",3,"WHITE",5,"NOT HISPANIC OR LATINO",2,"PATCH",3,"USA",235,"United States of America",154.94,62.6,15,23,10.26,88.4,26.0763757216845,2.58233333333333,46.3976470588235,58.0399213301922,384
"CDISCPILOT01","01-701-1034",0,2,2,2,2,54,81,"XAN",0.01,2,"N",0,NA,1.44350094194412,1.44350094194412,0.367071372662459,0,"ug/ml","2014-07-01T02:00:00",0,0,7,"Pharmacokinetic concentration of Xanomeline",1,"XANOMELINE",1,1,"701",701,1034,"1034",1034,77,"F",2,2,"Xanomeline High Dose","TRANSDERMAL",3,"WHITE",5,"NOT HISPANIC OR LATINO",2,"PATCH",3,"USA",235,"United States of America",154.94,62.6,15,23,10.26,88.4,26.0763757216845,2.58233333333333,46.3976470588235,58.0399213301922,385
"CDISCPILOT01","01-701-1034",0,4,4,4,4,54,81,"XAN",0.01,2,"N",0,NA,1.79317182280164,1.79317182280164,0.583986019815017,0,"ug/ml","2014-07-01T04:00:00",0,0,8,"Pharmacokinetic concentration of Xanomeline",1,"XANOMELINE",1,1,"701",701,1034,"1034",1034,77,"F",2,2,"Xanomeline High Dose","TRANSDERMAL",3,"WHITE",5,"NOT HISPANIC OR LATINO",2,"PATCH",3,"USA",235,"United States of America",154.94,62.6,15,23,10.26,88.4,26.0763757216845,2.58233333333333,46.3976470588235,58.0399213301922,386
"CDISCPILOT01","01-701-1034",0,6,6,6,6,54,81,"XAN",0.01,2,"N",0,NA,1.87787542178579,1.87787542178579,0.630141043008447,0,"ug/ml","2014-07-01T06:00:00",0,0,9,"Pharmacokinetic concentration of Xanomeline",1,"XANOMELINE",1,1,"701",701,1034,"1034",1034,77,"F",2,2,"Xanomeline High Dose","TRANSDERMAL",3,"WHITE",5,"NOT HISPANIC OR LATINO",2,"PATCH",3,"USA",235,"United States of America",154.94,62.6,15,23,10.26,88.4,26.0763757216845,2.58233333333333,46.3976470588235,58.0399213301922,387
"CDISCPILOT01","01-701-1034",0,3,6,6,3,54,81,"XAN",0.01,3,"N",0,NA,26.2155023255361,26.2155023255361,3.26635092760082,0,"ug/ml","2014-07-01T06:00:00",0,0,10,"Pharmacokinetic concentration of Xanomeline",1,"XANOMELINE",1,1,"701",701,1034,"1034",1034,77,"F",2,2,"Xanomeline High Dose","TRANSDERMAL",3,"WHITE",5,"NOT HISPANIC OR LATINO",2,"PATCH",3,"USA",235,"United States of America",154.94,62.6,15,23,10.26,88.4,26.0763757216845,2.58233333333333,46.3976470588235,58.0399213301922,388
"CDISCPILOT01","01-701-1034",0,8,8,8,8,54,81,"XAN",0.01,2,"N",0,NA,1.89839385804583,1.89839385804583,0.641008190802235,0,"ug/ml","2014-07-01T08:00:00",0,0,11,"Pharmacokinetic concentration of Xanomeline",1,"XANOMELINE",1,1,"701",701,1034,"1034",1034,77,"F",2,2,"Xanomeline High Dose","TRANSDERMAL",3,"WHITE",5,"NOT HISPANIC OR LATINO",2,"PATCH",3,"USA",235,"United States of America",154.94,62.6,15,23,10.26,88.4,26.0763757216845,2.58233333333333,46.3976470588235,58.0399213301922,389
"CDISCPILOT01","01-701-1034",0,12,12,12,12,54,81,"XAN",0.01,2,"N",0,NA,0.556083982494217,0.556083982494217,-0.586835948486633,0,"ug/ml","2014-07-01T12:00:00",0,0,12,"Pharmacokinetic concentration of Xanomeline",1,"XANOMELINE",1,1,"701",701,1034,"1034",1034,77,"F",2,2,"Xanomeline High Dose","TRANSDERMAL",3,"WHITE",5,"NOT HISPANIC OR LATINO",2,"PATCH",3,"USA",235,"United States of America",154.94,62.6,15,23,10.26,88.4,26.0763757216845,2.58233333333333,46.3976470588235,58.0399213301922,390
"CDISCPILOT01","01-701-1034",0,9,12,12,9,54,81,"XAN",0.01,3,"N",0,NA,21.9619994856393,21.9619994856393,3.08931366375503,0,"ug/ml","2014-07-01T12:00:00",0,0,13,"Pharmacokinetic concentration of Xanomeline",1,"XANOMELINE",1,1,"701",701,1034,"1034",1034,77,"F",2,2,"Xanomeline High Dose","TRANSDERMAL",3,"WHITE",5,"NOT HISPANIC OR LATINO",2,"PATCH",3,"USA",235,"United States of America",154.94,62.6,15,23,10.26,88.4,26.0763757216845,2.58233333333333,46.3976470588235,58.0399213301922,391
"CDISCPILOT01","01-701-1034",0,16,16,16,16,54,81,"XAN",0.01,2,"N",0,NA,0.162329138205261,0.162329138205261,-1.81812928757965,0,"ug/ml","2014-07-01T16:00:00",0,0,14,"Pharmacokinetic concentration of Xanomeline",1,"XANOMELINE",1,1,"701",701,1034,"1034",1034,77,"F",2,2,"Xanomeline High Dose","TRANSDERMAL",3,"WHITE",5,"NOT HISPANIC OR LATINO",2,"PATCH",3,"USA",235,"United States of America",154.94,62.6,15,23,10.26,88.4,26.0763757216845,2.58233333333333,46.3976470588235,58.0399213301922,392
"CDISCPILOT01","01-701-1034",0,24,24,24,24,54,81,"XAN",0.01,2,"N",0,NA,0.0138327547613956,0.0138327547613956,-4.28071596576569,0,"ug/ml","2014-07-02T00:00:00",0,0,15,"Pharmacokinetic concentration of Xanomeline",1,"XANOMELINE",1,1,"701",701,1034,"1034",1034,77,"F",2,2,"Xanomeline High Dose","TRANSDERMAL",3,"WHITE",5,"NOT HISPANIC OR LATINO",2,"PATCH",3,"USA",235,"United States of America",154.94,62.6,15,23,10.26,88.4,26.0763757216845,2.58233333333333,46.3976470588235,58.0399213301922,393
"CDISCPILOT01","01-701-1034",0,18,24,24,18,54,81,"XAN",0.01,3,"N",0,NA,13.4549938058456,13.4549938058456,2.59935032381798,0,"ug/ml","2014-07-02T00:00:00",0,0,16,"Pharmacokinetic concentration of Xanomeline",1,"XANOMELINE",1,1,"701",701,1034,"1034",1034,77,"F",2,2,"Xanomeline High Dose","TRANSDERMAL",3,"WHITE",5,"NOT HISPANIC OR LATINO",2,"PATCH",3,"USA",235,"United States of America",154.94,62.6,15,23,10.26,88.4,26.0763757216845,2.58233333333333,46.3976470588235,58.0399213301922,394
"CDISCPILOT01","01-701-1034",1,24,24,0,0,54,81,"DOSE",NA,1,"N",0,54,NA,NA,NA,1,NA,"2014-07-02T00:00:00",1,1,17,"Xanomeline Patch Dose",2,"XANOMELINE",1,1,"701",701,1034,"1034",1034,77,"F",2,2,"Xanomeline High Dose","TRANSDERMAL",3,"WHITE",5,"NOT HISPANIC OR LATINO",2,"PATCH",3,"USA",235,"United States of America",154.94,62.6,15,23,10.26,88.4,26.0763757216845,2.58233333333333,46.3976470588235,58.0399213301922,395
"CDISCPILOT01","01-701-1034",0,36,36,12,12,54,81,"XAN",0.01,2,"Y",1,NA,NA,NA,NA,1,"ug/ml","2014-07-02T12:00:00",0,0,18,"Pharmacokinetic concentration of Xanomeline",1,"XANOMELINE",1,1,"701",701,1034,"1034",1034,77,"F",2,2,"Xanomeline High Dose","TRANSDERMAL",3,"WHITE",5,"NOT HISPANIC OR LATINO",2,"PATCH",3,"USA",235,"United States of America",154.94,62.6,15,23,10.26,88.4,26.0763757216845,2.58233333333333,46.3976470588235,58.0399213301922,396
"CDISCPILOT01","01-701-1034",0,48,48,24,24,54,81,"XAN",0.01,2,"Y",1,NA,NA,NA,NA,1,"ug/ml","2014-07-03T00:00:00",0,0,19,"Pharmacokinetic concentration of Xanomeline",1,"XANOMELINE",1,1,"701",701,1034,"1034",1034,77,"F",2,2,"Xanomeline High Dose","TRANSDERMAL",3,"WHITE",5,"NOT HISPANIC OR LATINO",2,"PATCH",3,"USA",235,"United States of America",154.94,62.6,15,23,10.26,88.4,26.0763757216845,2.58233333333333,46.3976470588235,58.0399213301922,397
"CDISCPILOT01","01-701-1034",0,37,48,24,13,54,81,"XAN",0.01,3,"Y",1,NA,NA,NA,NA,1,"ug/ml","2014-07-03T00:00:00",0,0,20,"Pharmacokinetic concentration of Xanomeline",1,"XANOMELINE",1,1,"701",701,1034,"1034",1034,77,"F",2,2,"Xanomeline High Dose","TRANSDERMAL",3,"WHITE",5,"NOT HISPANIC OR LATINO",2,"PATCH",3,"USA",235,"United States of America",154.94,62.6,15,23,10.26,88.4,26.0763757216845,2.58233333333333,46.3976470588235,58.0399213301922,398
"CDISCPILOT01","01-701-1034",1,48,48,0,0,54,81,"DOSE",NA,1,"N",0,54,NA,NA,NA,1,NA,"2014-07-03T00:00:00",1,1,21,"Xanomeline Patch Dose",2,"XANOMELINE",1,1,"701",701,1034,"1034",1034,77,"F",2,2,"Xanomeline High Dose","TRANSDERMAL",3,"WHITE",5,"NOT HISPANIC OR LATINO",2,"PATCH",3,"USA",235,"United States of America",154.94,62.6,15,23,10.26,88.4,26.0763757216845,2.58233333333333,46.3976470588235,58.0399213301922,399
"CDISCPILOT01","01-707-1037",0,0,-0.5,-0.5,0,54,54,"XAN",0.01,2,"Y",1,NA,0,0,NA,0,"ug/ml","2013-12-19T23:30:00",0,0,1,"Pharmacokinetic concentration of Xanomeline",1,"XANOMELINE",1,1,"707",707,1037,"1037",1037,72,"F",2,1,"Xanomeline Low Dose","TRANSDERMAL",3,"WHITE",5,"NOT HISPANIC OR LATINO",2,"PATCH",3,"USA",235,"United States of America",152.4,55.34,5,26,5.13,114.92,23.8269920984286,2.54,34.0553846153846,43.7018508294988,400
"CDISCPILOT01","01-707-1037",1,0,0,0,0,54,54,"DOSE",NA,1,"N",0,54,NA,NA,NA,1,NA,"2013-12-20T00:00:00",1,1,2,"Xanomeline Patch Dose",2,"XANOMELINE",1,1,"707",707,1037,"1037",1037,72,"F",2,1,"Xanomeline Low Dose","TRANSDERMAL",3,"WHITE",5,"NOT HISPANIC OR LATINO",2,"PATCH",3,"USA",235,"United States of America",152.4,55.34,5,26,5.13,114.92,23.8269920984286,2.54,34.0553846153846,43.7018508294988,401
"CDISCPILOT01","01-707-1037",0,0.08,0.0833333333333333,0.0833333333333333,0.08,54,54,"XAN",0.01,2,"N",0,NA,0.106600429150721,0.106600429150721,-2.23866774145436,0,"ug/ml","2013-12-20T00:05:00",0,0,3,"Pharmacokinetic concentration of Xanomeline",1,"XANOMELINE",1,1,"707",707,1037,"1037",1037,72,"F",2,1,"Xanomeline Low Dose","TRANSDERMAL",3,"WHITE",5,"NOT HISPANIC OR LATINO",2,"PATCH",3,"USA",235,"United States of America",152.4,55.34,5,26,5.13,114.92,23.8269920984286,2.54,34.0553846153846,43.7018508294988,402
"CDISCPILOT01","01-707-1037",0,0.5,0.5,0.5,0.5,54,54,"XAN",0.01,2,"N",0,NA,0.577177377293542,0.577177377293542,-0.549605646728653,0,"ug/ml","2013-12-20T00:30:00",0,0,4,"Pharmacokinetic concentration of Xanomeline",1,"XANOMELINE",1,1,"707",707,1037,"1037",1037,72,"F",2,1,"Xanomeline Low Dose","TRANSDERMAL",3,"WHITE",5,"NOT HISPANIC OR LATINO",2,"PATCH",3,"USA",235,"United States of America",152.4,55.34,5,26,5.13,114.92,23.8269920984286,2.54,34.0553846153846,43.7018508294988,403
"CDISCPILOT01","01-707-1037",0,1,1,1,1,54,54,"XAN",0.01,2,"N",0,NA,0.98236473348688,0.98236473348688,-0.0177926205572353,0,"ug/ml","2013-12-20T01:00:00",0,0,5,"Pharmacokinetic concentration of Xanomeline",1,"XANOMELINE",1,1,"707",707,1037,"1037",1037,72,"F",2,1,"Xanomeline Low Dose","TRANSDERMAL",3,"WHITE",5,"NOT HISPANIC OR LATINO",2,"PATCH",3,"USA",235,"United States of America",152.4,55.34,5,26,5.13,114.92,23.8269920984286,2.54,34.0553846153846,43.7018508294988,404
"CDISCPILOT01","01-707-1037",0,1.5,1.5,1.5,1.5,54,54,"XAN",0.01,2,"N",0,NA,1.26681246147787,1.26681246147787,0.236503872607338,0,"ug/ml","2013-12-20T01:30:00",0,0,6,"Pharmacokinetic concentration of Xanomeline",1,"XANOMELINE",1,1,"707",707,1037,"1037",1037,72,"F",2,1,"Xanomeline Low Dose","TRANSDERMAL",3,"WHITE",5,"NOT HISPANIC OR LATINO",2,"PATCH",3,"USA",235,"United States of America",152.4,55.34,5,26,5.13,114.92,23.8269920984286,2.54,34.0553846153846,43.7018508294988,405
"CDISCPILOT01","01-707-1037",0,2,2,2,2,54,54,"XAN",0.01,2,"N",0,NA,1.46649912179071,1.46649912179071,0.382878010588076,0,"ug/ml","2013-12-20T02:00:00",0,0,7,"Pharmacokinetic concentration of Xanomeline",1,"XANOMELINE",1,1,"707",707,1037,"1037",1037,72,"F",2,1,"Xanomeline Low Dose","TRANSDERMAL",3,"WHITE",5,"NOT HISPANIC OR LATINO",2,"PATCH",3,"USA",235,"United States of America",152.4,55.34,5,26,5.13,114.92,23.8269920984286,2.54,34.0553846153846,43.7018508294988,406
"CDISCPILOT01","01-707-1037",0,4,4,4,4,54,54,"XAN",0.01,2,"N",0,NA,1.82267798614591,1.82267798614591,0.600306840568919,0,"ug/ml","2013-12-20T04:00:00",0,0,8,"Pharmacokinetic concentration of Xanomeline",1,"XANOMELINE",1,1,"707",707,1037,"1037",1037,72,"F",2,1,"Xanomeline Low Dose","TRANSDERMAL",3,"WHITE",5,"NOT HISPANIC OR LATINO",2,"PATCH",3,"USA",235,"United States of America",152.4,55.34,5,26,5.13,114.92,23.8269920984286,2.54,34.0553846153846,43.7018508294988,407
"CDISCPILOT01","01-707-1037",0,6,6,6,6,54,54,"XAN",0.01,2,"N",0,NA,1.90918562977713,1.90918562977713,0.646676779291781,0,"ug/ml","2013-12-20T06:00:00",0,0,9,"Pharmacokinetic concentration of Xanomeline",1,"XANOMELINE",1,1,"707",707,1037,"1037",1037,72,"F",2,1,"Xanomeline Low Dose","TRANSDERMAL",3,"WHITE",5,"NOT HISPANIC OR LATINO",2,"PATCH",3,"USA",235,"United States of America",152.4,55.34,5,26,5.13,114.92,23.8269920984286,2.54,34.0553846153846,43.7018508294988,408
"CDISCPILOT01","01-707-1037",0,3,6,6,3,54,54,"XAN",0.01,3,"N",0,NA,26.2801144334706,26.2801144334706,3.26881254800079,0,"ug/ml","2013-12-20T06:00:00",0,0,10,"Pharmacokinetic concentration of Xanomeline",1,"XANOMELINE",1,1,"707",707,1037,"1037",1037,72,"F",2,1,"Xanomeline Low Dose","TRANSDERMAL",3,"WHITE",5,"NOT HISPANIC OR LATINO",2,"PATCH",3,"USA",235,"United States of America",152.4,55.34,5,26,5.13,114.92,23.8269920984286,2.54,34.0553846153846,43.7018508294988,409
"CDISCPILOT01","01-707-1037",0,8,8,8,8,54,54,"XAN",0.01,2,"N",0,NA,1.93019634421178,1.93019634421178,0.657621730494584,0,"ug/ml","2013-12-20T08:00:00",0,0,11,"Pharmacokinetic concentration of Xanomeline",1,"XANOMELINE",1,1,"707",707,1037,"1037",1037,72,"F",2,1,"Xanomeline Low Dose","TRANSDERMAL",3,"WHITE",5,"NOT HISPANIC OR LATINO",2,"PATCH",3,"USA",235,"United States of America",152.4,55.34,5,26,5.13,114.92,23.8269920984286,2.54,34.0553846153846,43.7018508294988,410
"CDISCPILOT01","01-707-1037",0,12,12,12,12,54,54,"XAN",0.01,2,"N",0,NA,0.566715230337329,0.566715230337329,-0.567898340682739,0,"ug/ml","2013-12-20T12:00:00",0,0,12,"Pharmacokinetic concentration of Xanomeline",1,"XANOMELINE",1,1,"707",707,1037,"1037",1037,72,"F",2,1,"Xanomeline Low Dose","TRANSDERMAL",3,"WHITE",5,"NOT HISPANIC OR LATINO",2,"PATCH",3,"USA",235,"United States of America",152.4,55.34,5,26,5.13,114.92,23.8269920984286,2.54,34.0553846153846,43.7018508294988,411
"CDISCPILOT01","01-707-1037",0,9,12,12,9,54,54,"XAN",0.01,3,"N",0,NA,22.0345136626842,22.0345136626842,3.09261002692191,0,"ug/ml","2013-12-20T12:00:00",0,0,13,"Pharmacokinetic concentration of Xanomeline",1,"XANOMELINE",1,1,"707",707,1037,"1037",1037,72,"F",2,1,"Xanomeline Low Dose","TRANSDERMAL",3,"WHITE",5,"NOT HISPANIC OR LATINO",2,"PATCH",3,"USA",235,"United States of America",152.4,55.34,5,26,5.13,114.92,23.8269920984286,2.54,34.0553846153846,43.7018508294988,412
"CDISCPILOT01","01-707-1037",0,16,16,16,16,54,54,"XAN",0.01,2,"N",0,NA,0.165811412019049,0.165811412019049,-1.79690420861917,0,"ug/ml","2013-12-20T16:00:00",0,0,14,"Pharmacokinetic concentration of Xanomeline",1,"XANOMELINE",1,1,"707",707,1037,"1037",1037,72,"F",2,1,"Xanomeline Low Dose","TRANSDERMAL",3,"WHITE",5,"NOT HISPANIC OR LATINO",2,"PATCH",3,"USA",235,"United States of America",152.4,55.34,5,26,5.13,114.92,23.8269920984286,2.54,34.0553846153846,43.7018508294988,413
"CDISCPILOT01","01-707-1037",0,24,24,24,24,54,54,"XAN",0.01,2,"N",0,NA,0.0141942838031707,0.0141942838031707,-4.25491594449203,0,"ug/ml","2013-12-21T00:00:00",0,0,15,"Pharmacokinetic concentration of Xanomeline",1,"XANOMELINE",1,1,"707",707,1037,"1037",1037,72,"F",2,1,"Xanomeline Low Dose","TRANSDERMAL",3,"WHITE",5,"NOT HISPANIC OR LATINO",2,"PATCH",3,"USA",235,"United States of America",152.4,55.34,5,26,5.13,114.92,23.8269920984286,2.54,34.0553846153846,43.7018508294988,414
"CDISCPILOT01","01-707-1037",0,18,24,24,18,54,54,"XAN",0.01,3,"N",0,NA,13.5433121211114,13.5433121211114,2.60589285508207,0,"ug/ml","2013-12-21T00:00:00",0,0,16,"Pharmacokinetic concentration of Xanomeline",1,"XANOMELINE",1,1,"707",707,1037,"1037",1037,72,"F",2,1,"Xanomeline Low Dose","TRANSDERMAL",3,"WHITE",5,"NOT HISPANIC OR LATINO",2,"PATCH",3,"USA",235,"United States of America",152.4,55.34,5,26,5.13,114.92,23.8269920984286,2.54,34.0553846153846,43.7018508294988,415
"CDISCPILOT01","01-707-1037",1,24,24,0,0,54,54,"DOSE",NA,1,"N",0,54,NA,NA,NA,1,NA,"2013-12-21T00:00:00",1,1,17,"Xanomeline Patch Dose",2,"XANOMELINE",1,1,"707",707,1037,"1037",1037,72,"F",2,1,"Xanomeline Low Dose","TRANSDERMAL",3,"WHITE",5,"NOT HISPANIC OR LATINO",2,"PATCH",3,"USA",235,"United States of America",152.4,55.34,5,26,5.13,114.92,23.8269920984286,2.54,34.0553846153846,43.7018508294988,416
"CDISCPILOT01","01-707-1037",0,36,36,12,12,54,54,"XAN",0.01,2,"Y",1,NA,NA,NA,NA,1,"ug/ml","2013-12-21T12:00:00",0,0,18,"Pharmacokinetic concentration of Xanomeline",1,"XANOMELINE",1,1,"707",707,1037,"1037",1037,72,"F",2,1,"Xanomeline Low Dose","TRANSDERMAL",3,"WHITE",5,"NOT HISPANIC OR LATINO",2,"PATCH",3,"USA",235,"United States of America",152.4,55.34,5,26,5.13,114.92,23.8269920984286,2.54,34.0553846153846,43.7018508294988,417
"CDISCPILOT01","01-707-1037",0,48,48,24,24,54,54,"XAN",0.01,2,"Y",1,NA,NA,NA,NA,1,"ug/ml","2013-12-22T00:00:00",0,0,19,"Pharmacokinetic concentration of Xanomeline",1,"XANOMELINE",1,1,"707",707,1037,"1037",1037,72,"F",2,1,"Xanomeline Low Dose","TRANSDERMAL",3,"WHITE",5,"NOT HISPANIC OR LATINO",2,"PATCH",3,"USA",235,"United States of America",152.4,55.34,5,26,5.13,114.92,23.8269920984286,2.54,34.0553846153846,43.7018508294988,418
"CDISCPILOT01","01-707-1037",0,37,48,24,13,54,54,"XAN",0.01,3,"Y",1,NA,NA,NA,NA,1,"ug/ml","2013-12-22T00:00:00",0,0,20,"Pharmacokinetic concentration of Xanomeline",1,"XANOMELINE",1,1,"707",707,1037,"1037",1037,72,"F",2,1,"Xanomeline Low Dose","TRANSDERMAL",3,"WHITE",5,"NOT HISPANIC OR LATINO",2,"PATCH",3,"USA",235,"United States of America",152.4,55.34,5,26,5.13,114.92,23.8269920984286,2.54,34.0553846153846,43.7018508294988,419
"CDISCPILOT01","01-707-1037",1,48,48,0,0,54,54,"DOSE",NA,1,"N",0,54,NA,NA,NA,1,NA,"2013-12-22T00:00:00",1,1,21,"Xanomeline Patch Dose",2,"XANOMELINE",1,1,"707",707,1037,"1037",1037,72,"F",2,1,"Xanomeline Low Dose","TRANSDERMAL",3,"WHITE",5,"NOT HISPANIC OR LATINO",2,"PATCH",3,"USA",235,"United States of America",152.4,55.34,5,26,5.13,114.92,23.8269920984286,2.54,34.0553846153846,43.7018508294988,420
"CDISCPILOT01","01-713-1043",0,0,-0.5,-0.5,0,54,54,"XAN",0.01,2,"Y",1,NA,0,0,NA,0,"ug/ml","2013-09-14T23:30:00",0,0,1,"Pharmacokinetic concentration of Xanomeline",1,"XANOMELINE",1,1,"713",713,1043,"1043",1043,78,"F",2,1,"Xanomeline Low Dose","TRANSDERMAL",3,"WHITE",5,"NOT HISPANIC OR LATINO",2,"PATCH",3,"USA",235,"United States of America",165.1,51.26,16,26,6.84,97.24,18.805481397945,2.75166666666667,33.9905882352941,51.4463520524019,421
"CDISCPILOT01","01-713-1043",1,0,0,0,0,54,54,"DOSE",NA,1,"N",0,54,NA,NA,NA,1,NA,"2013-09-15T00:00:00",1,1,2,"Xanomeline Patch Dose",2,"XANOMELINE",1,1,"713",713,1043,"1043",1043,78,"F",2,1,"Xanomeline Low Dose","TRANSDERMAL",3,"WHITE",5,"NOT HISPANIC OR LATINO",2,"PATCH",3,"USA",235,"United States of America",165.1,51.26,16,26,6.84,97.24,18.805481397945,2.75166666666667,33.9905882352941,51.4463520524019,422
"CDISCPILOT01","01-713-1043",0,0.08,0.0833333333333333,0.0833333333333333,0.08,54,54,"XAN",0.01,2,"N",0,NA,0.0990420489101005,0.0990420489101005,-2.31221078255689,0,"ug/ml","2013-09-15T00:05:00",0,0,3,"Pharmacokinetic concentration of Xanomeline",1,"XANOMELINE",1,1,"713",713,1043,"1043",1043,78,"F",2,1,"Xanomeline Low Dose","TRANSDERMAL",3,"WHITE",5,"NOT HISPANIC OR LATINO",2,"PATCH",3,"USA",235,"United States of America",165.1,51.26,16,26,6.84,97.24,18.805481397945,2.75166666666667,33.9905882352941,51.4463520524019,423
"CDISCPILOT01","01-713-1043",0,0.5,0.5,0.5,0.5,54,54,"XAN",0.01,2,"N",0,NA,0.538062975846639,0.538062975846639,-0.619779670193786,0,"ug/ml","2013-09-15T00:30:00",0,0,4,"Pharmacokinetic concentration of Xanomeline",1,"XANOMELINE",1,1,"713",713,1043,"1043",1043,78,"F",2,1,"Xanomeline Low Dose","TRANSDERMAL",3,"WHITE",5,"NOT HISPANIC OR LATINO",2,"PATCH",3,"USA",235,"United States of America",165.1,51.26,16,26,6.84,97.24,18.805481397945,2.75166666666667,33.9905882352941,51.4463520524019,424
"CDISCPILOT01","01-713-1043",0,1,1,1,1,54,54,"XAN",0.01,2,"N",0,NA,0.919054452728172,0.919054452728172,-0.0844099062292632,0,"ug/ml","2013-09-15T01:00:00",0,0,5,"Pharmacokinetic concentration of Xanomeline",1,"XANOMELINE",1,1,"713",713,1043,"1043",1043,78,"F",2,1,"Xanomeline Low Dose","TRANSDERMAL",3,"WHITE",5,"NOT HISPANIC OR LATINO",2,"PATCH",3,"USA",235,"United States of America",165.1,51.26,16,26,6.84,97.24,18.805481397945,2.75166666666667,33.9905882352941,51.4463520524019,425
